time_s,throttle,throttle_delta,brake,speed,accel_x
234.2300,0.2827,0.0000,0.0000,5.7482,-0.0079
245.6000,0.5533,0.0104,0.0000,16.6629,-0.0362
245.6100,0.5533,0.0104,0.0000,16.6633,-0.0416
245.6200,0.5533,0.0104,0.0000,16.6638,-0.0519
245.6300,0.5533,0.0104,0.0000,16.6644,-0.0624
245.6400,0.5533,0.0104,0.0000,16.6652,-0.0715
245.6500,0.5533,0.0104,0.0000,16.6660,-0.0797
245.6600,0.5533,0.0104,0.0000,16.6668,-0.0868
245.6700,0.5533,0.0104,0.0000,16.6678,-0.0933
245.6800,0.5533,0.0104,0.0000,16.6687,-0.0990
245.6900,0.5533,0.0104,0.0000,16.6698,-0.1043
245.7000,0.5533,0.0104,0.0000,16.6709,-0.1089
245.7100,0.5533,0.0104,0.0000,16.6720,-0.1129
245.7200,0.5533,0.0104,0.0000,16.6732,-0.1169
245.7300,0.5533,0.0104,0.0000,16.6744,-0.1204
245.7400,0.5533,0.0104,0.0000,16.6756,-0.1234
245.7500,0.5533,0.0104,0.0000,16.6769,-0.1261
245.7600,0.5533,0.0104,0.0000,16.6782,-0.1339
245.7700,0.5533,0.0104,0.0000,16.6796,-0.1354
245.7800,0.5533,0.0104,0.0000,16.6809,-0.1354
245.7900,0.5533,0.0104,0.0000,16.6823,-0.1358
245.8000,0.5533,0.0104,0.0000,16.6836,-0.1369
245.8100,0.5533,0.0104,0.0000,16.6850,-0.1383
245.8200,0.5533,0.0104,0.0000,16.6864,-0.1396
245.8300,0.5533,0.0104,0.0000,16.6878,-0.1411
245.8400,0.5533,0.0104,0.0000,16.6893,-0.1427
245.8500,0.5533,0.0104,0.0000,16.6907,-0.1442
245.8600,0.5533,0.0104,0.0000,16.6922,-0.1457
245.8700,0.5533,0.0104,0.0000,16.6936,-0.1472
245.8800,0.5533,0.0104,0.0000,16.6951,-0.1486
245.8900,0.5533,0.0104,0.0000,16.6966,-0.1497
245.9000,0.5533,0.0104,0.0000,16.6981,-0.1513
245.9100,0.5533,0.0104,0.0000,16.6997,-0.1522
245.9200,0.5533,0.0104,0.0000,16.7012,-0.1534
245.9300,0.5533,0.0104,0.0000,16.7027,-0.1539
245.9400,0.5533,0.0104,0.0000,16.7043,-0.1547
245.9500,0.5533,0.0104,0.0000,16.7058,-0.1554
245.9600,0.5533,0.0104,0.0000,16.7074,-0.1564
245.9700,0.5533,0.0104,0.0000,16.7090,-0.1566
245.9800,0.5533,0.0104,0.0000,16.7105,-0.1574
245.9900,0.5533,0.0104,0.0000,16.7121,-0.1575
246.0000,0.5533,0.0104,0.0000,16.7138,-0.1656
246.0100,0.5533,0.0104,0.0000,16.7154,-0.1684
246.0200,0.5533,0.0104,0.0000,16.7172,-0.1703
246.0300,0.5533,0.0104,0.0000,16.7189,-0.1719
246.0400,0.5533,0.0104,0.0000,16.7206,-0.1728
246.0500,0.5533,0.0104,0.0000,16.7223,-0.1736
246.0600,0.5533,0.0104,0.0000,16.7241,-0.1743
246.0700,0.5533,0.0104,0.0000,16.7258,-0.1745
246.0800,0.5533,0.0104,0.0000,16.7276,-0.1745
246.0900,0.5533,0.0104,0.0000,16.7293,-0.1745
246.1000,0.5533,0.0104,0.0000,16.7311,-0.1745
246.1100,0.5533,0.0104,0.0000,16.7328,-0.1743
246.1200,0.5533,0.0104,0.0000,16.7345,-0.1743
246.1300,0.5533,0.0104,0.0000,16.7363,-0.1734
246.1400,0.5533,0.0104,0.0000,16.7380,-0.1734
246.1500,0.5533,0.0104,0.0000,16.7397,-0.1730
246.1600,0.5533,0.0104,0.0000,16.7415,-0.1726
246.1700,0.5533,0.0104,0.0000,16.7432,-0.1719
246.1800,0.5533,0.0104,0.0000,16.7449,-0.1743
246.1900,0.5533,0.0104,0.0000,16.7467,-0.1722
246.2000,0.5533,0.0104,0.0000,16.7484,-0.1711
246.2100,0.5533,0.0104,0.0000,16.7501,-0.1703
246.2200,0.5533,0.0104,0.0000,16.7518,-0.1699
246.2300,0.5533,0.0104,0.0000,16.7535,-0.1692
246.2400,0.5533,0.0104,0.0000,16.7551,-0.1690
246.2500,0.5533,0.0104,0.0000,16.7568,-0.1684
246.2600,0.5533,0.0104,0.0000,16.7585,-0.1684
246.2700,0.5533,0.0104,0.0000,16.7602,-0.1684
246.2800,0.5533,0.0104,0.0000,16.7619,-0.1682
246.2900,0.5533,0.0104,0.0000,16.7636,-0.1684
246.3000,0.5533,0.0104,0.0000,16.7652,-0.1682
246.3100,0.5533,0.0104,0.0000,16.7669,-0.1678
246.3200,0.5533,0.0104,0.0000,16.7686,-0.1677
246.3300,0.5533,0.0104,0.0000,16.7703,-0.1667
246.3400,0.5533,0.0104,0.0000,16.7719,-0.1667
246.3500,0.5533,0.0104,0.0000,16.7736,-0.1665
246.3600,0.5533,0.0104,0.0000,16.7753,-0.1663
246.3700,0.5533,0.0104,0.0000,16.7769,-0.1659
246.3800,0.5533,0.0104,0.0000,16.7786,-0.1661
246.3900,0.5533,0.0104,0.0000,16.7802,-0.1657
246.4000,0.5533,0.0104,0.0000,16.7819,-0.1659
246.4100,0.5533,0.0104,0.0000,16.7836,-0.1654
246.4200,0.5533,0.0104,0.0000,16.7852,-0.1652
246.4300,0.5533,0.0104,0.0000,16.7869,-0.1648
246.4400,0.5533,0.0104,0.0000,16.7885,-0.1648
246.4500,0.5533,0.0104,0.0000,16.7902,-0.1648
246.4600,0.5533,0.0104,0.0000,16.7918,-0.1646
246.4700,0.5533,0.0104,0.0000,16.7934,-0.1638
246.4800,0.5533,0.0104,0.0000,16.7951,-0.1637
246.4900,0.5533,0.0104,0.0000,16.7967,-0.1635
246.5000,0.5533,0.0104,0.0000,16.7983,-0.1631
246.5100,0.5533,0.0104,0.0000,16.8000,-0.1625
246.5200,0.5533,0.0104,0.0000,16.8016,-0.1623
246.5300,0.5533,0.0104,0.0000,16.8032,-0.1623
246.5400,0.5533,0.0104,0.0000,16.8048,-0.1623
246.5500,0.5533,0.0104,0.0000,16.8065,-0.1617
246.5600,0.5533,0.0104,0.0000,16.8081,-0.1612
246.5700,0.5533,0.0104,0.0000,16.8097,-0.1612
246.5800,0.5533,0.0104,0.0000,16.8113,-0.1608
246.5900,0.5533,0.0104,0.0000,16.8129,-0.1602
246.6000,0.5533,0.0104,0.0000,16.8145,-0.1602
246.6100,0.5533,0.0104,0.0000,16.8161,-0.1598
246.6200,0.5533,0.0104,0.0000,16.8177,-0.1591
246.6300,0.5533,0.0104,0.0000,16.8193,-0.1587
246.6400,0.5533,0.0104,0.0000,16.8208,-0.1587
246.6500,0.5533,0.0104,0.0000,16.8224,-0.1585
246.6600,0.5533,0.0104,0.0000,16.8240,-0.1579
246.6700,0.5533,0.0104,0.0000,16.8256,-0.1574
246.6800,0.5533,0.0104,0.0000,16.8272,-0.1575
246.6900,0.5533,0.0104,0.0000,16.8287,-0.1572
246.7000,0.5533,0.0104,0.0000,16.8303,-0.1566
246.7100,0.5533,0.0104,0.0000,16.8319,-0.1564
246.7200,0.5533,0.0104,0.0000,16.8334,-0.1562
246.7300,0.5533,0.0104,0.0000,16.8350,-0.1556
246.7400,0.5533,0.0104,0.0000,16.8365,-0.1554
246.7500,0.5533,0.0104,0.0000,16.8381,-0.1551
246.7600,0.5533,0.0104,0.0000,16.8396,-0.1547
246.7700,0.5533,0.0104,0.0000,16.8412,-0.1543
246.7800,0.5533,0.0104,0.0000,16.8427,-0.1539
246.7900,0.5533,0.0104,0.0000,16.8443,-0.1539
246.8000,0.5533,0.0104,0.0000,16.8458,-0.1535
246.8100,0.5533,0.0104,0.0000,16.8473,-0.1532
246.8200,0.5533,0.0104,0.0000,16.8489,-0.1528
246.8300,0.5533,0.0104,0.0000,16.8504,-0.1526
246.8400,0.5533,0.0104,0.0000,16.8519,-0.1522
246.8500,0.5533,0.0104,0.0000,16.8534,-0.1516
246.8600,0.5533,0.0104,0.0000,16.8549,-0.1514
246.8700,0.5533,0.0104,0.0000,16.8564,-0.1513
246.8800,0.5533,0.0104,0.0000,16.8580,-0.1511
246.8900,0.5533,0.0104,0.0000,16.8595,-0.1503
246.9000,0.5533,0.0104,0.0000,16.8610,-0.1503
246.9100,0.5533,0.0104,0.0000,16.8625,-0.1499
246.9200,0.5533,0.0104,0.0000,16.8640,-0.1497
246.9300,0.5533,0.0104,0.0000,16.8654,-0.1492
246.9400,0.5533,0.0104,0.0000,16.8669,-0.1488
246.9500,0.5533,0.0104,0.0000,16.8684,-0.1490
246.9600,0.5533,0.0104,0.0000,16.8699,-0.1484
246.9700,0.5533,0.0104,0.0000,16.8714,-0.1478
246.9800,0.5533,0.0104,0.0000,16.8729,-0.1476
246.9900,0.5533,0.0104,0.0000,16.8743,-0.1474
247.0000,0.5533,0.0104,0.0000,16.8758,-0.1469
247.0100,0.5533,0.0104,0.0000,16.8773,-0.1465
247.0200,0.5533,0.0104,0.0000,16.8787,-0.1465
247.0300,0.5533,0.0104,0.0000,16.8802,-0.1461
247.0400,0.5533,0.0104,0.0000,16.8817,-0.1457
247.0500,0.5533,0.0104,0.0000,16.8831,-0.1453
247.0600,0.5533,0.0104,0.0000,16.8846,-0.1453
247.0700,0.5533,0.0104,0.0000,16.8860,-0.1448
247.0800,0.5533,0.0104,0.0000,16.8875,-0.1448
247.0900,0.5533,0.0104,0.0000,16.8889,-0.1442
247.1000,0.5533,0.0104,0.0000,16.8903,-0.1440
247.1100,0.5533,0.0104,0.0000,16.8918,-0.1434
247.1200,0.5533,0.0104,0.0000,16.8932,-0.1432
247.1300,0.5533,0.0104,0.0000,16.8946,-0.1431
247.1400,0.5533,0.0104,0.0000,16.8961,-0.1427
247.1500,0.5533,0.0104,0.0000,16.8975,-0.1425
247.1600,0.5533,0.0104,0.0000,16.8989,-0.1421
247.1700,0.5533,0.0104,0.0000,16.9003,-0.1417
247.1800,0.5533,0.0104,0.0000,16.9017,-0.1415
247.1900,0.5533,0.0104,0.0000,16.9032,-0.1413
247.2000,0.5533,0.0104,0.0000,16.9046,-0.1406
247.2100,0.5533,0.0104,0.0000,16.9060,-0.1404
247.2200,0.5533,0.0104,0.0000,16.9074,-0.1404
247.2300,0.5533,0.0104,0.0000,16.9088,-0.1400
247.2400,0.5533,0.0104,0.0000,16.9102,-0.1398
247.2500,0.5533,0.0104,0.0000,16.9116,-0.1390
247.2600,0.5533,0.0104,0.0000,16.9129,-0.1392
247.2700,0.5533,0.0104,0.0000,16.9143,-0.1390
247.2800,0.5533,0.0104,0.0000,16.9157,-0.1385
247.2900,0.5533,0.0104,0.0000,16.9171,-0.1379
247.3000,0.5533,0.0104,0.0000,16.9185,-0.1381
247.3100,0.5533,0.0104,0.0000,16.9199,-0.1379
247.3200,0.5533,0.0104,0.0000,16.9212,-0.1373
247.3300,0.5533,0.0104,0.0000,16.9226,-0.1368
247.3400,0.5533,0.0104,0.0000,16.9240,-0.1368
247.3500,0.5533,0.0104,0.0000,16.9253,-0.1366
247.3600,0.5533,0.0104,0.0000,16.9267,-0.1362
247.3700,0.5533,0.0104,0.0000,16.9281,-0.1356
247.3800,0.5533,0.0104,0.0000,16.9294,-0.1354
247.3900,0.5533,0.0104,0.0000,16.9308,-0.1356
247.4000,0.5533,0.0104,0.0000,16.9321,-0.1350
247.4100,0.5533,0.0104,0.0000,16.9335,-0.1343
247.4200,0.5533,0.0104,0.0000,16.9348,-0.1343
247.4300,0.5533,0.0104,0.0000,16.9361,-0.1343
247.4400,0.5533,0.0104,0.0000,16.9375,-0.1339
247.4500,0.5533,0.0104,0.0000,16.9388,-0.1329
247.4600,0.5533,0.0104,0.0000,16.9401,-0.1331
247.4700,0.5533,0.0104,0.0000,16.9415,-0.1331
247.4800,0.5533,0.0104,0.0000,16.9428,-0.1328
247.4900,0.5533,0.0104,0.0000,16.9441,-0.1320
247.5000,0.5533,0.0104,0.0000,16.9454,-0.1318
247.5100,0.5533,0.0104,0.0000,16.9468,-0.1320
247.5200,0.5533,0.0104,0.0000,16.9481,-0.1316
247.5300,0.5533,0.0104,0.0000,16.9494,-0.1308
247.5400,0.5533,0.0104,0.0000,16.9507,-0.1308
247.5500,0.5533,0.0104,0.0000,16.9520,-0.1308
247.5600,0.5533,0.0104,0.0000,16.9533,-0.1303
247.5700,0.5533,0.0104,0.0000,16.9546,-0.1303
247.5800,0.5533,0.0104,0.0000,16.9559,-0.1301
247.5900,0.5533,0.0104,0.0000,16.9572,-0.1295
247.6000,0.5533,0.0104,0.0000,16.9585,-0.1293
247.6100,0.5533,0.0104,0.0000,16.9598,-0.1289
247.6200,0.5533,0.0104,0.0000,16.9611,-0.1291
247.6300,0.5533,0.0104,0.0000,16.9624,-0.1282
247.6400,0.5533,0.0104,0.0000,16.9636,-0.1282
247.6500,0.5533,0.0104,0.0000,16.9649,-0.1280
247.6600,0.5533,0.0104,0.0000,16.9662,-0.1276
247.6700,0.5533,0.0104,0.0000,16.9675,-0.1276
247.6800,0.5533,0.0104,0.0000,16.9687,-0.1270
247.6900,0.5533,0.0104,0.0000,16.9700,-0.1266
247.7000,0.5533,0.0104,0.0000,16.9713,-0.1266
247.7100,0.5533,0.0104,0.0000,16.9725,-0.1268
247.7200,0.5533,0.0104,0.0000,16.9738,-0.1259
247.7300,0.5533,0.0104,0.0000,16.9751,-0.1257
247.7400,0.5533,0.0104,0.0000,16.9763,-0.1259
247.7500,0.5533,0.0104,0.0000,16.9776,-0.1253
247.7600,0.5533,0.0104,0.0000,16.9788,-0.1247
247.7700,0.5533,0.0104,0.0000,16.9801,-0.1245
247.7800,0.5533,0.0104,0.0000,16.9813,-0.1245
247.7900,0.5533,0.0104,0.0000,16.9826,-0.1242
247.8000,0.5533,0.0104,0.0000,16.9838,-0.1240
247.8100,0.5533,0.0104,0.0000,16.9850,-0.1232
247.8200,0.5533,0.0104,0.0000,16.9863,-0.1232
247.8300,0.5533,0.0104,0.0000,16.9875,-0.1234
247.8400,0.5533,0.0104,0.0000,16.9887,-0.1228
247.8500,0.5533,0.0104,0.0000,16.9899,-0.1225
247.8600,0.5533,0.0104,0.0000,16.9912,-0.1221
247.8700,0.5533,0.0104,0.0000,16.9924,-0.1213
247.8800,0.5533,0.0104,0.0000,16.9936,-0.1207
247.8900,0.5533,0.0104,0.0000,16.9948,-0.1207
247.9000,0.5533,0.0104,0.0000,16.9960,-0.1204
247.9100,0.5533,0.0104,0.0000,16.9972,-0.1202
247.9200,0.5533,0.0104,0.0000,16.9984,-0.1198
247.9300,0.5533,0.0104,0.0000,16.9996,-0.1196
247.9400,0.5533,0.0104,0.0000,17.0008,-0.1196
247.9500,0.5533,0.0104,0.0000,17.0020,-0.1190
247.9600,0.5533,0.0104,0.0000,17.0032,-0.1190
247.9700,0.5533,0.0104,0.0000,17.0044,-0.1184
247.9800,0.5533,0.0104,0.0000,17.0055,-0.1184
247.9900,0.5533,0.0104,0.0000,17.0067,-0.1183
248.0000,0.5533,0.0104,0.0000,17.0079,-0.1183
248.0100,0.5533,0.0104,0.0000,17.0091,-0.1175
248.0200,0.5533,0.0104,0.0000,17.0103,-0.1175
248.0300,0.5533,0.0104,0.0000,17.0114,-0.1171
248.0400,0.5533,0.0104,0.0000,17.0126,-0.1171
248.0500,0.5533,0.0104,0.0000,17.0138,-0.1167
248.0600,0.5533,0.0104,0.0000,17.0149,-0.1163
248.0700,0.5533,0.0104,0.0000,17.0161,-0.1162
248.0800,0.5533,0.0104,0.0000,17.0172,-0.1160
248.0900,0.5533,0.0104,0.0000,17.0184,-0.1160
248.1000,0.5533,0.0104,0.0000,17.0196,-0.1160
248.1100,0.5533,0.0104,0.0000,17.0207,-0.1158
248.1200,0.5533,0.0104,0.0000,17.0219,-0.1150
248.1300,0.5533,0.0104,0.0000,17.0230,-0.1148
248.1400,0.5533,0.0104,0.0000,17.0242,-0.1146
248.1500,0.5533,0.0104,0.0000,17.0253,-0.1146
248.1600,0.5533,0.0104,0.0000,17.0265,-0.1144
248.1700,0.5533,0.0104,0.0000,17.0276,-0.1141
248.1800,0.5533,0.0104,0.0000,17.0287,-0.1135
248.1900,0.5533,0.0104,0.0000,17.0299,-0.1133
248.2000,0.5533,0.0104,0.0000,17.0310,-0.1133
248.2100,0.5533,0.0104,0.0000,17.0321,-0.1125
248.2200,0.5533,0.0104,0.0000,17.0332,-0.1123
248.2300,0.5533,0.0104,0.0000,17.0344,-0.1123
248.2400,0.5533,0.0104,0.0000,17.0355,-0.1122
248.2500,0.5533,0.0104,0.0000,17.0366,-0.1122
248.2600,0.5533,0.0104,0.0000,17.0377,-0.1112
248.2700,0.5533,0.0104,0.0000,17.0388,-0.1112
248.2800,0.5533,0.0104,0.0000,17.0399,-0.1110
248.2900,0.5533,0.0104,0.0000,17.0411,-0.1110
248.3000,0.5533,0.0104,0.0000,17.0422,-0.1108
248.3100,0.5533,0.0104,0.0000,17.0433,-0.1102
248.3200,0.5533,0.0104,0.0000,17.0444,-0.1101
248.3300,0.5533,0.0104,0.0000,17.0455,-0.1099
248.3400,0.5533,0.0104,0.0000,17.0466,-0.1099
248.3500,0.5533,0.0104,0.0000,17.0477,-0.1099
248.3600,0.5533,0.0104,0.0000,17.0488,-0.1089
248.3700,0.5533,0.0104,0.0000,17.0498,-0.1085
248.3800,0.5533,0.0104,0.0000,17.0509,-0.1083
248.3900,0.5533,0.0104,0.0000,17.0520,-0.1074
248.4000,0.5533,0.0104,0.0000,17.0531,-0.1074
248.4100,0.5533,0.0104,0.0000,17.0541,-0.1068
248.4200,0.5533,0.0104,0.0000,17.0552,-0.1062
248.4300,0.5533,0.0104,0.0000,17.0563,-0.1062
248.4400,0.5533,0.0104,0.0000,17.0573,-0.1062
248.4500,0.5533,0.0104,0.0000,17.0584,-0.1060
248.4600,0.5533,0.0104,0.0000,17.0594,-0.1059
248.4700,0.5533,0.0104,0.0000,17.0605,-0.1053
248.4800,0.5533,0.0104,0.0000,17.0615,-0.1051
248.4900,0.5533,0.0104,0.0000,17.0626,-0.1049
248.5000,0.5533,0.0104,0.0000,17.0636,-0.1051
248.5100,0.5533,0.0104,0.0000,17.0647,-0.1047
248.5200,0.5533,0.0104,0.0000,17.0657,-0.1041
248.5300,0.5533,0.0104,0.0000,17.0668,-0.1041
248.5400,0.5533,0.0104,0.0000,17.0678,-0.1038
248.5500,0.5533,0.0104,0.0000,17.0689,-0.1038
248.5600,0.5533,0.0104,0.0000,17.0699,-0.1036
248.5700,0.5533,0.0104,0.0000,17.0709,-0.1036
248.5800,0.5533,0.0104,0.0000,17.0720,-0.1030
248.5900,0.5533,0.0104,0.0000,17.0730,-0.1030
248.6000,0.5533,0.0104,0.0000,17.0740,-0.1024
248.6100,0.5533,0.0104,0.0000,17.0750,-0.1026
248.6200,0.5533,0.0104,0.0000,17.0761,-0.1024
248.6300,0.5533,0.0104,0.0000,17.0771,-0.1020
248.6400,0.5533,0.0104,0.0000,17.0781,-0.1020
248.6500,0.5533,0.0104,0.0000,17.0791,-0.1017
248.6600,0.5533,0.0104,0.0000,17.0801,-0.1013
248.6700,0.5533,0.0104,0.0000,17.0811,-0.1013
248.6800,0.5533,0.0104,0.0000,17.0822,-0.1011
248.6900,0.5533,0.0104,0.0000,17.0832,-0.1007
248.7000,0.5533,0.0104,0.0000,17.0842,-0.1005
248.7100,0.5533,0.0104,0.0000,17.0852,-0.1005
248.7200,0.5533,0.0104,0.0000,17.0862,-0.0999
248.7300,0.5533,0.0104,0.0000,17.0872,-0.1001
248.7400,0.5533,0.0104,0.0000,17.0882,-0.0996
248.7500,0.5533,0.0104,0.0000,17.0892,-0.0998
248.7600,0.5533,0.0104,0.0000,17.0902,-0.0992
248.7700,0.5533,0.0104,0.0000,17.0911,-0.0992
248.7800,0.5533,0.0104,0.0000,17.0921,-0.0990
248.7900,0.5533,0.0104,0.0000,17.0931,-0.0988
248.8000,0.5533,0.0104,0.0000,17.0941,-0.0986
248.8100,0.5533,0.0104,0.0000,17.0951,-0.0982
248.8200,0.5533,0.0104,0.0000,17.0961,-0.0984
248.8300,0.5533,0.0104,0.0000,17.0971,-0.0978
248.8400,0.5533,0.0104,0.0000,17.0980,-0.0977
248.8500,0.5533,0.0104,0.0000,17.0990,-0.0977
248.8600,0.5533,0.0104,0.0000,17.1000,-0.0975
248.8700,0.5533,0.0104,0.0000,17.1010,-0.0973
248.8800,0.5533,0.0104,0.0000,17.1019,-0.0965
248.8900,0.5533,0.0104,0.0000,17.1029,-0.0965
248.9000,0.5533,0.0104,0.0000,17.1039,-0.0963
248.9100,0.5533,0.0104,0.0000,17.1048,-0.0965
248.9200,0.5533,0.0104,0.0000,17.1058,-0.0961
248.9300,0.5533,0.0104,0.0000,17.1067,-0.0959
248.9400,0.5533,0.0104,0.0000,17.1077,-0.0952
248.9500,0.5533,0.0104,0.0000,17.1086,-0.0952
248.9600,0.5533,0.0104,0.0000,17.1096,-0.0952
248.9700,0.5533,0.0104,0.0000,17.1105,-0.0952
248.9800,0.5533,0.0104,0.0000,17.1115,-0.0950
248.9900,0.5533,0.0104,0.0000,17.1124,-0.0946
249.0000,0.5533,0.0104,0.0000,17.1134,-0.0938
249.0100,0.5533,0.0104,0.0000,17.1143,-0.0940
249.0200,0.5533,0.0104,0.0000,17.1153,-0.0940
249.0300,0.5533,0.0104,0.0000,17.1162,-0.0938
249.0400,0.5533,0.0104,0.0000,17.1171,-0.0938
249.0500,0.5533,0.0104,0.0000,17.1181,-0.0931
249.0600,0.5533,0.0104,0.0000,17.1190,-0.0927
249.0700,0.5533,0.0104,0.0000,17.1199,-0.0929
249.0800,0.5533,0.0104,0.0000,17.1209,-0.0927
249.0900,0.5533,0.0104,0.0000,17.1218,-0.0929
249.1000,0.5533,0.0104,0.0000,17.1227,-0.0923
249.1100,0.5533,0.0104,0.0000,17.1236,-0.0921
249.1200,0.5533,0.0104,0.0000,17.1245,-0.0916
249.1300,0.5533,0.0104,0.0000,17.1255,-0.0916
249.1400,0.5533,0.0104,0.0000,17.1264,-0.0916
249.1500,0.5533,0.0104,0.0000,17.1273,-0.0916
249.1600,0.5533,0.0104,0.0000,17.1282,-0.0914
249.1700,0.5533,0.0104,0.0000,17.1291,-0.0912
249.1800,0.5533,0.0104,0.0000,17.1300,-0.0904
249.1900,0.5533,0.0104,0.0000,17.1309,-0.0904
249.2000,0.5533,0.0104,0.0000,17.1318,-0.0904
249.2100,0.5533,0.0104,0.0000,17.1327,-0.0902
249.2200,0.5533,0.0104,0.0000,17.1336,-0.0900
249.2300,0.5533,0.0104,0.0000,17.1345,-0.0900
249.2400,0.5533,0.0104,0.0000,17.1354,-0.0893
249.2500,0.5533,0.0104,0.0000,17.1363,-0.0891
249.2600,0.5533,0.0104,0.0000,17.1372,-0.0891
249.2700,0.5533,0.0104,0.0000,17.1381,-0.0893
249.2800,0.5533,0.0104,0.0000,17.1390,-0.0887
249.2900,0.5533,0.0104,0.0000,17.1399,-0.0881
249.3000,0.5533,0.0104,0.0000,17.1407,-0.0879
249.3100,0.5533,0.0104,0.0000,17.1416,-0.0879
249.3200,0.5533,0.0104,0.0000,17.1425,-0.0877
249.3300,0.5533,0.0104,0.0000,17.1434,-0.0877
249.3400,0.5533,0.0104,0.0000,17.1442,-0.0872
249.3500,0.5533,0.0104,0.0000,17.1451,-0.0872
249.3600,0.5533,0.0104,0.0000,17.1460,-0.0870
249.3700,0.5533,0.0104,0.0000,17.1469,-0.0866
249.3800,0.5533,0.0104,0.0000,17.1477,-0.0870
249.3900,0.5533,0.0104,0.0000,17.1486,-0.0881
249.4000,0.5533,0.0104,0.0000,17.1495,-0.0916
249.4100,0.5533,0.0104,0.0000,17.1505,-0.0948
249.4200,0.5533,0.0104,0.0000,17.1515,-0.0992
249.4300,0.5533,0.0104,0.0000,17.1525,-0.1043
249.4400,0.5533,0.0104,0.0000,17.1536,-0.1120
249.4500,0.5533,0.0104,0.0000,17.1547,-0.1081
249.4600,0.5533,0.0104,0.0000,17.1558,-0.1068
249.4700,0.5533,0.0104,0.0000,17.1568,-0.1068
249.4800,0.5533,0.0104,0.0000,17.1579,-0.1081
249.4900,0.5533,0.0104,0.0000,17.1590,-0.1093
249.5000,0.5533,0.0104,0.0000,17.1601,-0.1114
249.5100,0.5533,0.0104,0.0000,17.1612,-0.1043
249.5200,0.5533,0.0104,0.0000,17.1621,-0.0961
249.5300,0.5533,0.0104,0.0000,17.1631,-0.0919
249.5400,0.5533,0.0104,0.0000,17.1639,-0.0881
249.5500,0.5533,0.0104,0.0000,17.1648,-0.0854
249.5600,0.5533,0.0104,0.0000,17.1656,-0.0835
249.5700,0.5533,0.0104,0.0000,17.1665,-0.0826
249.5800,0.5533,0.0104,0.0000,17.1673,-0.0813
249.5900,0.5533,0.0104,0.0000,17.1681,-0.0795
249.6000,0.5533,0.0104,0.0000,17.1688,-0.0780
249.6100,0.5533,0.0104,0.0000,17.1696,-0.0763
249.6200,0.5533,0.0104,0.0000,17.1703,-0.0711
249.6300,0.5533,0.0104,0.0000,17.1710,-0.0729
249.6400,0.5533,0.0104,0.0000,17.1718,-0.0750
249.6500,0.5533,0.0104,0.0000,17.1725,-0.0759
249.6600,0.5533,0.0104,0.0000,17.1733,-0.0757
249.6700,0.5533,0.0104,0.0000,17.1741,-0.0748
249.6800,0.5533,0.0104,0.0000,17.1748,-0.0727
249.6900,0.5533,0.0104,0.0000,17.1755,-0.0738
249.7000,0.5533,0.0104,0.0000,17.1763,-0.0774
249.7100,0.5533,0.0104,0.0000,17.1771,-0.0797
249.7200,0.5533,0.0104,0.0000,17.1779,-0.0813
249.7300,0.5533,0.0104,0.0000,17.1787,-0.0824
249.7400,0.5533,0.0104,0.0000,17.1796,-0.0830
249.7500,0.5533,0.0104,0.0000,17.1804,-0.0830
249.7600,0.5533,0.0104,0.0000,17.1812,-0.0832
249.7700,0.5533,0.0104,0.0000,17.1821,-0.0830
249.7800,0.5533,0.0104,0.0000,17.1829,-0.0832
249.7900,0.5533,0.0104,0.0000,17.1837,-0.0830
249.8000,0.5533,0.0104,0.0000,17.1846,-0.0824
249.8100,0.5533,0.0104,0.0000,17.1854,-0.0820
249.8200,0.5533,0.0104,0.0000,17.1862,-0.0818
249.8300,0.5533,0.0104,0.0000,17.1870,-0.0811
249.8400,0.5533,0.0104,0.0000,17.1878,-0.0807
249.8500,0.5533,0.0104,0.0000,17.1886,-0.0805
249.8600,0.5533,0.0104,0.0000,17.1894,-0.0799
249.8700,0.5533,0.0104,0.0000,17.1902,-0.0793
249.8800,0.5533,0.0104,0.0000,17.1910,-0.0793
249.8900,0.5533,0.0104,0.0000,17.1919,-0.0874
249.9000,0.5533,0.0104,0.0000,17.1928,-0.0957
249.9100,0.5533,0.0104,0.0000,17.1938,-0.1009
249.9200,0.5533,0.0104,0.0000,17.1949,-0.1043
249.9300,0.5533,0.0104,0.0000,17.1959,-0.1060
249.9400,0.5533,0.0104,0.0000,17.1970,-0.1078
249.9500,0.5533,0.0104,0.0000,17.1981,-0.1099
249.9600,0.5533,0.0104,0.0000,17.1991,-0.1007
249.9700,0.5533,0.0104,0.0000,17.2000,-0.0950
249.9800,0.5533,0.0104,0.0000,17.2009,-0.0902
249.9900,0.5533,0.0104,0.0000,17.2018,-0.0868
250.0000,0.5533,0.0104,0.0000,17.2026,-0.0843
250.0100,0.5533,0.0104,0.0000,17.2035,-0.0818
250.0200,0.5533,0.0104,0.0000,17.2043,-0.0801
250.0300,0.5533,0.0104,0.0000,17.2050,-0.0788
250.0400,0.5533,0.0104,0.0000,17.2058,-0.0774
250.0500,0.5533,0.0104,0.0000,17.2066,-0.0767
250.0600,0.5533,0.0104,0.0000,17.2074,-0.0767
250.0700,0.5533,0.0104,0.0000,17.2081,-0.0742
250.0800,0.5533,0.0104,0.0000,17.2088,-0.0723
250.0900,0.5533,0.0104,0.0000,17.2095,-0.0717
250.1000,0.5533,0.0104,0.0000,17.2102,-0.0715
250.1100,0.5533,0.0104,0.0000,17.2110,-0.0738
250.1200,0.5533,0.0104,0.0000,17.2118,-0.0828
250.1300,0.5533,0.0104,0.0000,17.2127,-0.0864
250.1400,0.5533,0.0104,0.0000,17.2136,-0.0948
250.1500,0.5533,0.0104,0.0000,17.2146,-0.1009
250.1600,0.5533,0.0104,0.0000,17.2157,-0.1047
250.1700,0.5533,0.0104,0.0000,17.2168,-0.1074
250.1800,0.5533,0.0104,0.0000,17.2179,-0.1093
250.1900,0.5533,0.0104,0.0000,17.2190,-0.1110
250.2000,0.5533,0.0104,0.0000,17.2201,-0.1110
250.2100,0.5533,0.0104,0.0000,17.2211,-0.1041
250.2200,0.5533,0.0104,0.0000,17.2221,-0.0977
250.2300,0.5533,0.0104,0.0000,17.2231,-0.0933
250.2400,0.5533,0.0104,0.0000,17.2240,-0.0898
250.2500,0.5533,0.0104,0.0000,17.2248,-0.0866
250.2600,0.5533,0.0104,0.0000,17.2257,-0.0847
250.2700,0.5533,0.0104,0.0000,17.2265,-0.0824
250.2800,0.5533,0.0104,0.0000,17.2273,-0.0816
250.2900,0.5533,0.0104,0.0000,17.2281,-0.0790
250.3000,0.5533,0.0104,0.0000,17.2288,-0.0757
250.3100,0.5533,0.0104,0.0000,17.2296,-0.0742
250.3200,0.5533,0.0104,0.0000,17.2303,-0.0732
250.3300,0.5533,0.0104,0.0000,17.2311,-0.0732
250.3400,0.5533,0.0104,0.0000,17.2318,-0.0732
250.3500,0.5533,0.0104,0.0000,17.2325,-0.0732
250.3600,0.5533,0.0104,0.0000,17.2333,-0.0734
250.3700,0.5533,0.0104,0.0000,17.2340,-0.0732
250.3800,0.5533,0.0104,0.0000,17.2347,-0.0694
250.3900,0.5533,0.0104,0.0000,17.2355,-0.0746
250.4000,0.5533,0.0104,0.0000,17.2362,-0.0778
250.4100,0.5533,0.0104,0.0000,17.2370,-0.0797
250.4200,0.5533,0.0104,0.0000,17.2378,-0.0811
250.4300,0.5533,0.0104,0.0000,17.2387,-0.0818
250.4400,0.5533,0.0104,0.0000,17.2395,-0.0824
250.4500,0.5533,0.0104,0.0000,17.2403,-0.0830
250.4600,0.5533,0.0104,0.0000,17.2411,-0.0828
250.4700,0.5533,0.0104,0.0000,17.2420,-0.0828
250.4800,0.5533,0.0104,0.0000,17.2428,-0.0820
250.4900,0.5533,0.0104,0.0000,17.2436,-0.0818
250.5000,0.5533,0.0104,0.0000,17.2444,-0.0818
250.5100,0.5533,0.0104,0.0000,17.2452,-0.0811
250.5200,0.5533,0.0104,0.0000,17.2460,-0.0805
250.5300,0.5533,0.0104,0.0000,17.2468,-0.0807
250.5400,0.5533,0.0104,0.0000,17.2476,-0.0799
250.5500,0.5533,0.0104,0.0000,17.2484,-0.0793
250.5600,0.5533,0.0104,0.0000,17.2492,-0.0792
250.5700,0.5533,0.0104,0.0000,17.2500,-0.0788
250.5800,0.5533,0.0104,0.0000,17.2508,-0.0782
250.5900,0.5533,0.0104,0.0000,17.2516,-0.0780
250.6000,0.5533,0.0104,0.0000,17.2523,-0.0776
250.6100,0.5533,0.0104,0.0000,17.2531,-0.0769
250.6200,0.5533,0.0104,0.0000,17.2539,-0.0771
250.6300,0.5533,0.0104,0.0000,17.2546,-0.0767
250.6400,0.5533,0.0104,0.0000,17.2554,-0.0761
250.6500,0.5533,0.0104,0.0000,17.2562,-0.0757
250.6600,0.5533,0.0104,0.0000,17.2569,-0.0757
250.6700,0.5533,0.0104,0.0000,17.2577,-0.0755
250.6800,0.5533,0.0104,0.0000,17.2584,-0.0753
250.6900,0.5533,0.0104,0.0000,17.2592,-0.0746
250.7000,0.5533,0.0104,0.0000,17.2599,-0.0746
250.7100,0.5533,0.0104,0.0000,17.2607,-0.0744
250.7200,0.5533,0.0104,0.0000,17.2614,-0.0744
250.7300,0.5533,0.0104,0.0000,17.2622,-0.0740
250.7400,0.5533,0.0104,0.0000,17.2629,-0.0734
250.7500,0.5533,0.0104,0.0000,17.2636,-0.0732
250.7600,0.5533,0.0104,0.0000,17.2644,-0.0732
250.7700,0.5533,0.0104,0.0000,17.2651,-0.0732
250.7800,0.5533,0.0104,0.0000,17.2658,-0.0732
250.7900,0.5533,0.0104,0.0000,17.2665,-0.0731
250.8000,0.5533,0.0104,0.0000,17.2673,-0.0725
250.8100,0.5533,0.0104,0.0000,17.2680,-0.0721
250.8200,0.5533,0.0104,0.0000,17.2687,-0.0721
250.8300,0.5533,0.0104,0.0000,17.2694,-0.0721
250.8400,0.5533,0.0104,0.0000,17.2702,-0.0719
250.8500,0.5533,0.0104,0.0000,17.2709,-0.0721
250.8600,0.5533,0.0104,0.0000,17.2716,-0.0719
250.8700,0.5533,0.0104,0.0000,17.2723,-0.0713
250.8800,0.5533,0.0104,0.0000,17.2730,-0.0710
250.8900,0.5533,0.0104,0.0000,17.2737,-0.0708
250.9000,0.5533,0.0104,0.0000,17.2744,-0.0710
250.9100,0.5533,0.0104,0.0000,17.2751,-0.0708
250.9200,0.5533,0.0104,0.0000,17.2758,-0.0708
250.9300,0.5533,0.0104,0.0000,17.2766,-0.0706
250.9400,0.5533,0.0104,0.0000,17.2773,-0.0706
250.9500,0.5533,0.0104,0.0000,17.2780,-0.0700
250.9600,0.5533,0.0104,0.0000,17.2787,-0.0698
250.9700,0.5533,0.0104,0.0000,17.2794,-0.0696
250.9800,0.5533,0.0104,0.0000,17.2801,-0.0696
250.9900,0.5533,0.0104,0.0000,17.2807,-0.0696
251.0000,0.5533,0.0104,0.0000,17.2814,-0.0696
251.0100,0.5533,0.0104,0.0000,17.2821,-0.0694
251.0200,0.5533,0.0104,0.0000,17.2828,-0.0692
251.0300,0.5533,0.0104,0.0000,17.2835,-0.0690
251.0400,0.5533,0.0104,0.0000,17.2842,-0.0683
251.0500,0.5533,0.0104,0.0000,17.2849,-0.0685
251.0600,0.5533,0.0104,0.0000,17.2856,-0.0683
251.0700,0.5533,0.0104,0.0000,17.2863,-0.0683
251.0800,0.5533,0.0104,0.0000,17.2869,-0.0685
251.0900,0.5533,0.0104,0.0000,17.2876,-0.0683
251.1000,0.5533,0.0104,0.0000,17.2883,-0.0679
251.1100,0.5533,0.0104,0.0000,17.2890,-0.0675
251.1200,0.5533,0.0104,0.0000,17.2896,-0.0673
251.1300,0.5533,0.0104,0.0000,17.2903,-0.0671
251.1400,0.5533,0.0104,0.0000,17.2910,-0.0671
251.1500,0.5533,0.0104,0.0000,17.2917,-0.0671
251.1600,0.5533,0.0104,0.0000,17.2923,-0.0671
251.1700,0.5533,0.0104,0.0000,17.2930,-0.0671
251.1800,0.5533,0.0104,0.0000,17.2937,-0.0669
251.1900,0.5533,0.0104,0.0000,17.2943,-0.0669
251.2000,0.5533,0.0104,0.0000,17.2950,-0.0664
251.2100,0.5533,0.0104,0.0000,17.2957,-0.0662
251.2200,0.5533,0.0104,0.0000,17.2963,-0.0662
251.2300,0.5533,0.0104,0.0000,17.2970,-0.0681
251.2400,0.5533,0.0104,0.0000,17.2977,-0.0689
251.2500,0.5533,0.0104,0.0000,17.2984,-0.0696
251.2600,0.5533,0.0104,0.0000,17.2991,-0.0698
251.2700,0.5533,0.0104,0.0000,17.2998,-0.0706
251.2800,0.5533,0.0104,0.0000,17.3005,-0.0708
251.2900,0.5533,0.0104,0.0000,17.3012,-0.0706
251.3000,0.5533,0.0104,0.0000,17.3019,-0.0708
251.3100,0.5533,0.0104,0.0000,17.3026,-0.0717
251.3200,0.5533,0.0104,0.0000,17.3034,-0.0725
251.3300,0.5533,0.0104,0.0000,17.3041,-0.0734
251.3400,0.5533,0.0104,0.0000,17.3048,-0.0744
251.3500,0.5533,0.0104,0.0000,17.3056,-0.0744
251.3600,0.5533,0.0104,0.0000,17.3063,-0.0746
251.3700,0.5533,0.0104,0.0000,17.3071,-0.0746
251.3800,0.5533,0.0104,0.0000,17.3078,-0.0744
251.3900,0.5533,0.0104,0.0000,17.3086,-0.0744
251.4000,0.5533,0.0104,0.0000,17.3093,-0.0750
251.4100,0.5533,0.0104,0.0000,17.3101,-0.0746
251.4200,0.5533,0.0104,0.0000,17.3108,-0.0744
251.4300,0.5533,0.0104,0.0000,17.3115,-0.0734
251.4400,0.5533,0.0104,0.0000,17.3123,-0.0732
251.4500,0.5533,0.0104,0.0000,17.3130,-0.0729
251.4600,0.5533,0.0104,0.0000,17.3137,-0.0729
251.4700,0.5533,0.0104,0.0000,17.3144,-0.0723
251.4800,0.5533,0.0104,0.0000,17.3152,-0.0727
251.4900,0.5533,0.0104,0.0000,17.3159,-0.0721
251.5000,0.5533,0.0104,0.0000,17.3166,-0.0723
251.5100,0.5533,0.0104,0.0000,17.3173,-0.0719
251.5200,0.5533,0.0104,0.0000,17.3180,-0.0713
251.5300,0.5533,0.0104,0.0000,17.3188,-0.0711
251.5400,0.5533,0.0104,0.0000,17.3195,-0.0710
251.5500,0.5533,0.0104,0.0000,17.3202,-0.0708
251.5600,0.5533,0.0104,0.0000,17.3209,-0.0708
251.5700,0.5533,0.0104,0.0000,17.3216,-0.0710
251.5800,0.5533,0.0104,0.0000,17.3223,-0.0708
251.5900,0.5533,0.0104,0.0000,17.3230,-0.0708
251.6000,0.5533,0.0104,0.0000,17.3237,-0.0710
251.6100,0.5533,0.0104,0.0000,17.3244,-0.0708
251.6200,0.5533,0.0104,0.0000,17.3251,-0.0710
251.6300,0.5533,0.0104,0.0000,17.3258,-0.0708
251.6400,0.5533,0.0104,0.0000,17.3265,-0.0708
251.6500,0.5533,0.0104,0.0000,17.3273,-0.0710
251.6600,0.5533,0.0104,0.0000,17.3280,-0.0696
251.6700,0.5533,0.0104,0.0000,17.3286,-0.0696
251.6800,0.5533,0.0104,0.0000,17.3293,-0.0696
251.6900,0.5533,0.0104,0.0000,17.3300,-0.0694
251.7000,0.5533,0.0104,0.0000,17.3307,-0.0696
251.7100,0.5533,0.0104,0.0000,17.3314,-0.0696
251.7200,0.5533,0.0104,0.0000,17.3321,-0.0696
251.7300,0.5533,0.0104,0.0000,17.3328,-0.0696
251.7400,0.5533,0.0104,0.0000,17.3335,-0.0694
251.7500,0.5533,0.0104,0.0000,17.3342,-0.0696
251.7600,0.5533,0.0104,0.0000,17.3349,-0.0692
251.7700,0.5533,0.0104,0.0000,17.3356,-0.0690
251.7800,0.5533,0.0104,0.0000,17.3363,-0.0690
251.7900,0.5533,0.0104,0.0000,17.3370,-0.0683
251.8000,0.5533,0.0104,0.0000,17.3377,-0.0685
251.8100,0.5533,0.0104,0.0000,17.3383,-0.0683
251.8200,0.5533,0.0104,0.0000,17.3385,-0.0143
251.8300,0.5533,0.0104,0.0000,17.3377,0.0769
251.8400,0.5533,0.0104,0.0000,17.3369,0.0793
251.8500,0.5533,0.0104,0.0000,17.3368,0.0141
251.8600,0.5533,0.0104,0.0000,17.3372,-0.0395
251.8700,0.5533,0.0104,0.0000,17.3379,-0.0683
251.8800,0.5533,0.0104,0.0000,17.3388,-0.0910
251.8900,0.5533,0.0104,0.0000,17.3399,-0.1085
251.9000,0.5533,0.0104,0.0000,17.3411,-0.1223
251.9100,0.5533,0.0104,0.0000,17.3424,-0.1326
251.9200,0.5533,0.0104,0.0000,17.3438,-0.1402
251.9300,0.5533,0.0104,0.0000,17.3453,-0.1461
251.9400,0.5533,0.0104,0.0000,17.3468,-0.1497
251.9500,0.5533,0.0104,0.0000,17.3483,-0.1526
251.9600,0.5533,0.0104,0.0000,17.3498,-0.1539
251.9700,0.5533,0.0104,0.0000,17.3514,-0.1551
251.9800,0.5533,0.0104,0.0000,17.3529,-0.1553
251.9900,0.5533,0.0104,0.0000,17.3543,-0.1347
252.0000,0.5533,0.0104,0.0000,17.3553,-0.0975
252.0100,0.5533,0.0104,0.0000,17.3563,-0.1062
252.0200,0.5533,0.0104,0.0000,17.3578,-0.1442
252.0300,0.5533,0.0104,0.0000,17.3592,-0.1438
252.0400,0.5533,0.0104,0.0000,17.3605,-0.1326
252.0500,0.5533,0.0104,0.0000,17.3613,-0.0813
252.0600,0.5533,0.0104,0.0000,17.3618,-0.0444
252.0700,0.5533,0.0104,0.0000,17.3621,-0.0303
252.0800,0.5533,0.0104,0.0000,17.3627,-0.0603
252.0900,0.5533,0.0104,0.0000,17.3634,-0.0696
252.1000,0.5533,0.0104,0.0000,17.3642,-0.0816
252.1100,0.5533,0.0104,0.0000,17.3652,-0.0980
252.1200,0.5533,0.0104,0.0000,17.3663,-0.1118
252.1300,0.5533,0.0104,0.0000,17.3675,-0.1228
252.1400,0.5533,0.0104,0.0000,17.3688,-0.1274
252.1500,0.5533,0.0104,0.0000,17.3702,-0.1408
252.1600,0.5533,0.0104,0.0000,17.3717,-0.1539
252.1700,0.5533,0.0104,0.0000,17.3734,-0.1638
252.1800,0.5533,0.0104,0.0000,17.3751,-0.1726
252.1900,0.5533,0.0104,0.0000,17.3769,-0.1789
252.2000,0.5533,0.0104,0.0000,17.3787,-0.1846
252.2100,0.5533,0.0104,0.0000,17.3806,-0.1884
252.2200,0.5533,0.0104,0.0000,17.3824,-0.1772
252.2300,0.5533,0.0104,0.0000,17.3842,-0.1747
252.2400,0.5533,0.0104,0.0000,17.3860,-0.1837
252.2500,0.5533,0.0104,0.0000,17.3881,-0.2064
252.2600,0.5533,0.0104,0.0000,17.3901,-0.2071
252.2700,0.5533,0.0104,0.0000,17.3921,-0.1945
252.2800,0.5533,0.0104,0.0000,17.3940,-0.1884
252.2900,0.5533,0.0104,0.0000,17.3958,-0.1854
252.3000,0.5533,0.0104,0.0000,17.3976,-0.1833
252.3100,0.5533,0.0104,0.0000,17.3994,-0.1778
252.3200,0.5533,0.0104,0.0000,17.4011,-0.1724
252.3300,0.5533,0.0104,0.0000,17.4028,-0.1667
252.3400,0.5533,0.0104,0.0000,17.4045,-0.1736
252.3500,0.5533,0.0104,0.0000,17.4063,-0.1780
252.3600,0.5533,0.0104,0.0000,17.4081,-0.1812
252.3700,0.5533,0.0104,0.0000,17.4100,-0.1909
252.3800,0.5533,0.0104,0.0000,17.4120,-0.1989
252.3900,0.5533,0.0104,0.0000,17.4141,-0.2060
252.4000,0.5533,0.0104,0.0000,17.4162,-0.2117
252.4100,0.5533,0.0104,0.0000,17.4184,-0.2161
252.4200,0.5533,0.0104,0.0000,17.4205,-0.2167
252.4300,0.5533,0.0104,0.0000,17.4227,-0.2207
252.4400,0.5533,0.0104,0.0000,17.4250,-0.2272
252.4500,0.5533,0.0104,0.0000,17.4273,-0.2317
252.4600,0.5533,0.0104,0.0000,17.4296,-0.2323
252.4700,0.5533,0.0104,0.0000,17.4320,-0.2359
252.4800,0.5533,0.0104,0.0000,17.4344,-0.2417
252.4900,0.5533,0.0104,0.0000,17.4369,-0.2464
252.5000,0.5533,0.0104,0.0000,17.4393,-0.2443
252.5100,0.5533,0.0104,0.0000,17.4418,-0.2443
252.5200,0.5533,0.0104,0.0000,17.4443,-0.2487
252.5300,0.5533,0.0104,0.0000,17.4466,-0.2369
252.5400,0.5533,0.0104,0.0000,17.4490,-0.2335
252.5500,0.5533,0.0104,0.0000,17.4513,-0.2321
252.5600,0.5533,0.0104,0.0000,17.4536,-0.2314
252.5700,0.5533,0.0104,0.0000,17.4560,-0.2350
252.5800,0.5533,0.0104,0.0000,17.4583,-0.2316
252.5900,0.5533,0.0104,0.0000,17.4605,-0.2253
252.6000,0.5533,0.0104,0.0000,17.4627,-0.2174
252.6100,0.5533,0.0104,0.0000,17.4649,-0.2155
252.6200,0.5533,0.0104,0.0000,17.4670,-0.2146
252.6300,0.5533,0.0104,0.0000,17.4691,-0.2117
252.6400,0.5533,0.0104,0.0000,17.4712,-0.2073
252.6500,0.5533,0.0104,0.0000,17.4733,-0.2073
252.6600,0.5533,0.0104,0.0000,17.4753,-0.2083
252.6700,0.5533,0.0104,0.0000,17.4774,-0.2094
252.6800,0.5533,0.0104,0.0000,17.4795,-0.2102
252.6900,0.5533,0.0104,0.0000,17.4817,-0.2201
252.7000,0.5533,0.0104,0.0000,17.4840,-0.2218
252.7100,0.5533,0.0104,0.0000,17.4862,-0.2224
252.7200,0.5533,0.0104,0.0000,17.4884,-0.2230
252.7300,0.5533,0.0104,0.0000,17.4907,-0.2237
252.7400,0.5533,0.0104,0.0000,17.4929,-0.2281
252.7500,0.5533,0.0104,0.0000,17.4953,-0.2327
252.7600,0.5533,0.0104,0.0000,17.4976,-0.2323
252.7700,0.5533,0.0104,0.0000,17.4999,-0.2316
252.7800,0.5533,0.0104,0.0000,17.5022,-0.2310
252.7900,0.5533,0.0104,0.0000,17.5045,-0.2300
252.8000,0.5533,0.0104,0.0000,17.5068,-0.2285
252.8100,0.5533,0.0104,0.0000,17.5091,-0.2272
252.8200,0.5533,0.0104,0.0000,17.5113,-0.2258
252.8300,0.5533,0.0104,0.0000,17.5136,-0.2247
252.8400,0.5533,0.0104,0.0000,17.5158,-0.2230
252.8500,0.5533,0.0104,0.0000,17.5180,-0.2218
252.8600,0.5533,0.0104,0.0000,17.5202,-0.2207
252.8700,0.5533,0.0104,0.0000,17.5224,-0.2193
252.8800,0.5533,0.0104,0.0000,17.5246,-0.2180
252.8900,0.5533,0.0104,0.0000,17.5268,-0.2169
252.9000,0.5533,0.0104,0.0000,17.5289,-0.2159
252.9100,0.5533,0.0104,0.0000,17.5311,-0.2151
252.9200,0.5533,0.0104,0.0000,17.5332,-0.2140
252.9300,0.5533,0.0104,0.0000,17.5352,-0.1932
252.9400,0.5533,0.0104,0.0000,17.5372,-0.2024
252.9500,0.5533,0.0104,0.0000,17.5393,-0.2153
252.9600,0.5533,0.0104,0.0000,17.5416,-0.2256
252.9700,0.5533,0.0104,0.0000,17.5439,-0.2333
252.9800,0.5533,0.0104,0.0000,17.5463,-0.2394
252.9900,0.5533,0.0104,0.0000,17.5488,-0.2438
253.0000,0.5533,0.0104,0.0000,17.5512,-0.2476
253.0100,0.5533,0.0104,0.0000,17.5537,-0.2502
253.0200,0.5533,0.0104,0.0000,17.5563,-0.2518
253.0300,0.5533,0.0104,0.0000,17.5588,-0.2529
253.0400,0.5533,0.0104,0.0000,17.5613,-0.2541
253.0500,0.5533,0.0104,0.0000,17.5639,-0.2544
253.0600,0.5533,0.0104,0.0000,17.5664,-0.2537
253.0700,0.5533,0.0104,0.0000,17.5689,-0.2535
253.0800,0.5533,0.0104,0.0000,17.5715,-0.2533
253.0900,0.5533,0.0104,0.0000,17.5740,-0.2527
253.1000,0.5629,0.0199,0.0000,17.5763,-0.2333
253.1100,0.5629,0.0199,0.0000,17.5786,-0.2241
253.1200,0.5629,0.0199,0.0000,17.5809,-0.2331
253.1300,0.5629,0.0199,0.0000,17.5833,-0.2430
253.1400,0.5629,0.0199,0.0000,17.5859,-0.2525
253.1500,0.5629,0.0199,0.0000,17.5885,-0.2621
253.1600,0.5629,0.0199,0.0000,17.5912,-0.2707
253.1700,0.5629,0.0199,0.0000,17.5940,-0.2779
253.1800,0.5629,0.0199,0.0000,17.5968,-0.2859
253.1900,0.5629,0.0199,0.0000,17.5998,-0.2932
253.2000,0.5629,0.0199,0.0000,17.6028,-0.3002
253.2100,0.5629,0.0199,0.0000,17.6058,-0.3063
253.2200,0.5629,0.0199,0.0000,17.6089,-0.3122
253.2300,0.5629,0.0199,0.0000,17.6121,-0.3174
253.2400,0.5629,0.0199,0.0000,17.6153,-0.3220
253.2500,0.5629,0.0199,0.0000,17.6186,-0.3267
253.2600,0.5629,0.0199,0.0000,17.6219,-0.3307
253.2700,0.5629,0.0199,0.0000,17.6252,-0.3340
253.2800,0.5629,0.0199,0.0000,17.6286,-0.3372
253.2900,0.5629,0.0199,0.0000,17.6320,-0.3401
253.3000,0.5629,0.0199,0.0000,17.6354,-0.3424
253.3100,0.5629,0.0199,0.0000,17.6389,-0.3450
253.3200,0.5629,0.0199,0.0000,17.6424,-0.3473
253.3300,0.5629,0.0199,0.0000,17.6459,-0.3485
253.3400,0.5629,0.0199,0.0000,17.6494,-0.3508
253.3500,0.5629,0.0199,0.0000,17.6529,-0.3519
253.3600,0.5629,0.0199,0.0000,17.6564,-0.3527
253.3700,0.5629,0.0199,0.0000,17.6599,-0.3538
253.3800,0.5629,0.0199,0.0000,17.6635,-0.3548
253.3900,0.5629,0.0199,0.0000,17.6670,-0.3555
253.4000,0.5629,0.0199,0.0000,17.6706,-0.3559
253.4100,0.5629,0.0199,0.0000,17.6742,-0.3563
253.4200,0.5629,0.0199,0.0000,17.6777,-0.3569
253.4300,0.5629,0.0199,0.0000,17.6813,-0.3574
253.4400,0.5629,0.0199,0.0000,17.6849,-0.3571
253.4500,0.5629,0.0199,0.0000,17.6885,-0.3576
253.4600,0.5629,0.0199,0.0000,17.6920,-0.3571
253.4700,0.5629,0.0199,0.0000,17.6956,-0.3574
253.4800,0.5629,0.0199,0.0000,17.6992,-0.3572
253.4900,0.5629,0.0199,0.0000,17.7027,-0.3569
253.5000,0.5629,0.0199,0.0000,17.7063,-0.3567
253.5100,0.5629,0.0199,0.0000,17.7099,-0.3571
253.5200,0.5629,0.0199,0.0000,17.7135,-0.3565
253.5300,0.5629,0.0199,0.0000,17.7170,-0.3563
253.5400,0.5629,0.0199,0.0000,17.7206,-0.3553
253.5500,0.5629,0.0199,0.0000,17.7241,-0.3551
253.5600,0.5629,0.0199,0.0000,17.7277,-0.3546
253.5700,0.5629,0.0199,0.0000,17.7312,-0.3542
253.5800,0.5629,0.0199,0.0000,17.7347,-0.3534
253.5900,0.5629,0.0199,0.0000,17.7383,-0.3534
253.6000,0.5629,0.0199,0.0000,17.7418,-0.3525
253.6100,0.5629,0.0199,0.0000,17.7453,-0.3521
253.6200,0.5629,0.0199,0.0000,17.7488,-0.3517
253.6300,0.5629,0.0199,0.0000,17.7523,-0.3508
253.6400,0.5629,0.0199,0.0000,17.7558,-0.3504
253.6500,0.5629,0.0199,0.0000,17.7593,-0.3496
253.6600,0.5629,0.0199,0.0000,17.7628,-0.3496
253.6700,0.5629,0.0199,0.0000,17.7663,-0.3492
253.6800,0.5629,0.0199,0.0000,17.7698,-0.3483
253.6900,0.5629,0.0199,0.0000,17.7733,-0.3477
253.7000,0.5629,0.0199,0.0000,17.7768,-0.3469
253.7100,0.5629,0.0199,0.0000,17.7802,-0.3462
253.7200,0.5629,0.0199,0.0000,17.7837,-0.3454
253.7300,0.5629,0.0199,0.0000,17.7871,-0.3447
253.7400,0.5629,0.0199,0.0000,17.7906,-0.3441
253.7500,0.5629,0.0199,0.0000,17.7940,-0.3439
253.7600,0.5629,0.0199,0.0000,17.7974,-0.3431
253.7700,0.5629,0.0199,0.0000,17.8009,-0.3422
253.7800,0.5629,0.0199,0.0000,17.8043,-0.3412
253.7900,0.5629,0.0199,0.0000,17.8077,-0.3407
253.8000,0.5629,0.0199,0.0000,17.8111,-0.3403
253.8100,0.5629,0.0199,0.0000,17.8145,-0.3395
253.8200,0.5629,0.0199,0.0000,17.8179,-0.3393
253.8300,0.5629,0.0199,0.0000,17.8212,-0.3380
253.8400,0.5629,0.0199,0.0000,17.8246,-0.3374
253.8500,0.5629,0.0199,0.0000,17.8280,-0.3372
253.8600,0.5629,0.0199,0.0000,17.8314,-0.3359
253.8700,0.5629,0.0199,0.0000,17.8347,-0.3353
253.8800,0.5629,0.0199,0.0000,17.8381,-0.3347
253.8900,0.5629,0.0199,0.0000,17.8414,-0.3340
253.9000,0.5629,0.0199,0.0000,17.8447,-0.3336
253.9100,0.5629,0.0199,0.0000,17.8481,-0.3326
253.9200,0.5629,0.0199,0.0000,17.8514,-0.3317
253.9300,0.5629,0.0199,0.0000,17.8547,-0.3317
253.9400,0.5629,0.0199,0.0000,17.8580,-0.3311
253.9500,0.5629,0.0199,0.0000,17.8613,-0.3286
253.9600,0.5629,0.0199,0.0000,17.8646,-0.3279
253.9700,0.5629,0.0199,0.0000,17.8678,-0.3279
253.9800,0.5629,0.0199,0.0000,17.8711,-0.3267
253.9900,0.5629,0.0199,0.0000,17.8744,-0.3260
254.0000,0.5629,0.0199,0.0000,17.8776,-0.3256
254.0100,0.5629,0.0199,0.0000,17.8809,-0.3248
254.0200,0.5629,0.0199,0.0000,17.8841,-0.3241
254.0300,0.5629,0.0199,0.0000,17.8874,-0.3233
254.0400,0.5629,0.0199,0.0000,17.8906,-0.3227
254.0500,0.5629,0.0199,0.0000,17.8938,-0.3225
254.0600,0.5629,0.0199,0.0000,17.8970,-0.3214
254.0700,0.5629,0.0199,0.0000,17.9002,-0.3204
254.0800,0.5629,0.0199,0.0000,17.9034,-0.3204
254.0900,0.5629,0.0199,0.0000,17.9066,-0.3197
254.1000,0.5629,0.0199,0.0000,17.9098,-0.3185
254.1100,0.5629,0.0199,0.0000,17.9130,-0.3181
254.1200,0.5629,0.0199,0.0000,17.9162,-0.3178
254.1300,0.5629,0.0199,0.0000,17.9193,-0.3168
254.1400,0.5629,0.0199,0.0000,17.9225,-0.3159
254.1500,0.5629,0.0199,0.0000,17.9257,-0.3157
254.1600,0.5629,0.0199,0.0000,17.9288,-0.3149
254.1700,0.5629,0.0199,0.0000,17.9319,-0.3143
254.1800,0.5629,0.0199,0.0000,17.9351,-0.3138
254.1900,0.5629,0.0199,0.0000,17.9382,-0.3126
254.2000,0.5629,0.0199,0.0000,17.9413,-0.3126
254.2100,0.5629,0.0199,0.0000,17.9445,-0.3119
254.2200,0.5629,0.0199,0.0000,17.9476,-0.3107
254.2300,0.5629,0.0199,0.0000,17.9507,-0.3103
254.2400,0.5629,0.0199,0.0000,17.9538,-0.3103
254.2500,0.5629,0.0199,0.0000,17.9569,-0.3088
254.2600,0.5629,0.0199,0.0000,17.9599,-0.3082
254.2700,0.5629,0.0199,0.0000,17.9630,-0.3080
254.2800,0.5629,0.0199,0.0000,17.9661,-0.3071
254.2900,0.5629,0.0199,0.0000,17.9691,-0.3061
254.3000,0.5629,0.0199,0.0000,17.9722,-0.3059
254.3100,0.5629,0.0199,0.0000,17.9753,-0.3054
254.3200,0.5629,0.0199,0.0000,17.9783,-0.3046
254.3300,0.5629,0.0199,0.0000,17.9813,-0.3038
254.3400,0.5629,0.0199,0.0000,17.9844,-0.3035
254.3500,0.5629,0.0199,0.0000,17.9874,-0.3025
254.3600,0.5629,0.0199,0.0000,17.9904,-0.3025
254.3700,0.5629,0.0199,0.0000,17.9934,-0.3014
254.3800,0.5629,0.0199,0.0000,17.9965,-0.3006
254.3900,0.5629,0.0199,0.0000,17.9995,-0.3002
254.4000,0.5629,0.0199,0.0000,18.0025,-0.3000
254.4100,0.5629,0.0199,0.0000,18.0054,-0.2989
254.4200,0.5629,0.0199,0.0000,18.0084,-0.2979
254.4300,0.5629,0.0199,0.0000,18.0114,-0.2981
254.4400,0.5629,0.0199,0.0000,18.0144,-0.2972
254.4500,0.5629,0.0199,0.0000,18.0173,-0.2962
254.4600,0.5629,0.0199,0.0000,18.0203,-0.2958
254.4700,0.5629,0.0199,0.0000,18.0232,-0.2954
254.4800,0.5629,0.0199,0.0000,18.0262,-0.2947
254.4900,0.5629,0.0199,0.0000,18.0291,-0.2937
254.5000,0.5629,0.0199,0.0000,18.0321,-0.2934
254.5100,0.5629,0.0199,0.0000,18.0350,-0.2928
254.5200,0.5629,0.0199,0.0000,18.0379,-0.2922
254.5300,0.5629,0.0199,0.0000,18.0408,-0.2916
254.5400,0.5629,0.0199,0.0000,18.0437,-0.2909
254.5500,0.5629,0.0199,0.0000,18.0466,-0.2905
254.5600,0.5629,0.0199,0.0000,18.0495,-0.2897
254.5700,0.5629,0.0199,0.0000,18.0524,-0.2893
254.5800,0.5629,0.0199,0.0000,18.0553,-0.2884
254.5900,0.5629,0.0199,0.0000,18.0582,-0.2882
254.6000,0.5629,0.0199,0.0000,18.0611,-0.2876
254.6100,0.5629,0.0199,0.0000,18.0639,-0.2865
254.6200,0.5629,0.0199,0.0000,18.0668,-0.2859
254.6300,0.5629,0.0199,0.0000,18.0697,-0.2857
254.6400,0.5629,0.0199,0.0000,18.0725,-0.2851
254.6500,0.5629,0.0199,0.0000,18.0754,-0.2842
254.6600,0.5629,0.0199,0.0000,18.0782,-0.2838
254.6700,0.5629,0.0199,0.0000,18.0810,-0.2834
254.6800,0.5629,0.0199,0.0000,18.0839,-0.2825
254.6900,0.5629,0.0199,0.0000,18.0867,-0.2821
254.7000,0.5629,0.0199,0.0000,18.0895,-0.2813
254.7100,0.5629,0.0199,0.0000,18.0923,-0.2808
254.7200,0.5629,0.0199,0.0000,18.0951,-0.2806
254.7300,0.5629,0.0199,0.0000,18.0979,-0.2798
254.7400,0.5629,0.0199,0.0000,18.1007,-0.2792
254.7500,0.5629,0.0199,0.0000,18.1035,-0.2783
254.7600,0.5629,0.0199,0.0000,18.1063,-0.2783
254.7700,0.5629,0.0199,0.0000,18.1090,-0.2773
254.7800,0.5629,0.0199,0.0000,18.1118,-0.2769
254.7900,0.5629,0.0199,0.0000,18.1146,-0.2762
254.8000,0.5629,0.0199,0.0000,18.1173,-0.2756
254.8100,0.5629,0.0199,0.0000,18.1201,-0.2748
254.8200,0.5629,0.0199,0.0000,18.1228,-0.2741
254.8300,0.5629,0.0199,0.0000,18.1255,-0.2729
254.8400,0.5629,0.0199,0.0000,18.1283,-0.2722
254.8500,0.5629,0.0199,0.0000,18.1310,-0.2718
254.8600,0.5629,0.0199,0.0000,18.1337,-0.2712
254.8700,0.5629,0.0199,0.0000,18.1364,-0.2705
254.8800,0.5629,0.0199,0.0000,18.1391,-0.2693
254.8900,0.5629,0.0199,0.0000,18.1418,-0.2693
254.9000,0.5629,0.0199,0.0000,18.1445,-0.2687
254.9100,0.5629,0.0199,0.0000,18.1471,-0.2680
254.9200,0.5629,0.0199,0.0000,18.1498,-0.2680
254.9300,0.5629,0.0199,0.0000,18.1525,-0.2678
254.9400,0.5629,0.0199,0.0000,18.1552,-0.2668
254.9500,0.5629,0.0199,0.0000,18.1578,-0.2655
254.9600,0.5629,0.0199,0.0000,18.1605,-0.2649
254.9700,0.5629,0.0199,0.0000,18.1631,-0.2651
254.9800,0.5629,0.0199,0.0000,18.1658,-0.2647
254.9900,0.5629,0.0199,0.0000,18.1684,-0.2642
255.0000,0.5629,0.0199,0.0000,18.1710,-0.2632
255.0100,0.5629,0.0199,0.0000,18.1760,-0.2632
255.0200,0.5629,0.0199,0.0000,18.1671,-0.2632
255.0300,0.5629,0.0199,0.0000,18.1594,-0.2632
255.0400,0.5629,0.0199,0.0000,18.1525,-0.2632
255.0500,0.5629,0.0199,0.0000,18.1464,-0.2632
255.0600,0.5629,0.0199,0.0000,18.1409,-0.2632
255.0700,0.5629,0.0199,0.0000,18.1359,-0.2632
255.0800,0.5629,0.0199,0.0000,18.1313,-0.2632
255.0900,0.5629,0.0199,0.0000,18.1271,-0.2632
255.1000,0.5629,0.0199,0.0000,18.1232,-0.2632
255.1100,0.5629,0.0199,0.0000,18.1196,-0.2632
255.1200,0.5629,0.0199,0.0000,18.1162,-0.2632
255.1300,0.5629,0.0199,0.0000,18.1130,-0.2632
255.1400,0.5629,0.0199,0.0000,18.1100,-0.2632
255.1500,0.5629,0.0199,0.0000,18.1071,-0.2632
255.1600,0.5629,0.0199,0.0000,18.1043,-0.2632
255.1700,0.5629,0.0199,0.0000,18.1017,-0.2632
255.1800,0.5629,0.0199,0.0000,18.0991,-0.2632
255.1900,0.5629,0.0199,0.0000,18.0966,-0.2632
255.2000,0.5629,0.0199,0.0000,18.0941,-0.2632
255.2100,0.5629,0.0199,0.0000,18.0917,-0.2632
255.2200,0.5629,0.0199,0.0000,18.0894,-0.2632
255.2300,0.5629,0.0199,0.0000,18.0870,-0.2632
255.2400,0.5629,0.0199,0.0000,18.0847,-0.2632
255.2500,0.5629,0.0199,0.0000,18.0825,-0.2632
255.2600,0.5629,0.0199,0.0000,18.0803,-0.2632
255.2700,0.5629,0.0199,0.0000,18.0780,-0.2632
255.2800,0.5629,0.0199,0.0000,18.0758,-0.2632
255.2900,0.5629,0.0199,0.0000,18.0736,-0.2632
255.3000,0.5629,0.0199,0.0000,18.0715,-0.2632
255.3100,0.5629,0.0199,0.0000,18.0693,-0.2632
255.3200,0.5629,0.0199,0.0000,18.0671,-0.2632
255.3300,0.5629,0.0199,0.0000,18.0650,-0.2632
255.3400,0.5629,0.0199,0.0000,18.0628,-0.2632
255.3500,0.5629,0.0199,0.0000,18.0609,-0.2632
255.3600,0.5629,0.0199,0.0000,18.0596,-0.2632
255.3700,0.5629,0.0199,0.0000,18.0584,-0.2632
255.3800,0.5629,0.0199,0.0000,18.0572,-0.2632
255.3900,0.5629,0.0199,0.0000,18.0560,-0.2632
255.4000,0.5629,0.0199,0.0000,18.0548,-0.2632
255.4100,0.5629,0.0199,0.0000,18.0536,-0.2632
255.4200,0.5629,0.0199,0.0000,18.0525,-0.2632
255.4300,0.5629,0.0199,0.0000,18.0513,-0.2632
255.4400,0.5629,0.0199,0.0000,18.0501,-0.2632
255.4500,0.5629,0.0199,0.0000,18.0489,-0.2632
255.4600,0.5629,0.0199,0.0000,18.0476,-0.2632
255.4700,0.5629,0.0199,0.0000,18.0464,-0.2632
255.4800,0.5629,0.0199,0.0000,18.0451,-0.2632
255.4900,0.5629,0.0199,0.0000,18.0438,-0.2632
255.5000,0.5629,0.0199,0.0000,18.0424,-0.2632
255.5100,0.5629,0.0199,0.0000,18.0409,-0.2632
255.5200,0.5629,0.0199,0.0000,18.0398,-0.2632
255.5300,0.5629,0.0199,0.0000,18.0386,-0.2632
255.5400,0.5629,0.0199,0.0000,18.0374,-0.2632
255.5500,0.5629,0.0199,0.0000,18.0361,-0.2632
255.5600,0.5629,0.0199,0.0000,18.0347,-0.2632
255.5700,0.5629,0.0199,0.0000,18.0333,-0.2632
255.5800,0.5629,0.0199,0.0000,18.0318,-0.2632
255.5900,0.5629,0.0199,0.0000,18.0304,-0.2632
255.6000,0.5629,0.0199,0.0000,18.0289,-0.2632
255.6100,0.5629,0.0199,0.0000,18.0274,-0.2632
255.6200,0.5629,0.0199,0.0000,18.0259,-0.2632
255.6300,0.5629,0.0199,0.0000,18.0245,-0.2632
255.6400,0.5629,0.0199,0.0000,18.0230,-0.2632
255.6500,0.5629,0.0199,0.0000,18.0215,-0.2632
255.6600,0.5629,0.0199,0.0000,18.0201,-0.2632
255.6700,0.5629,0.0199,0.0000,18.0186,-0.2632
255.6800,0.5629,0.0199,0.0000,18.0171,-0.2632
255.6900,0.5629,0.0199,0.0000,18.0157,-0.2632
255.7000,0.5629,0.0199,0.0000,18.0142,-0.2632
255.7100,0.5629,0.0199,0.0000,18.0128,-0.2632
255.7200,0.5629,0.0199,0.0000,18.0114,-0.2632
255.7300,0.5629,0.0199,0.0000,18.0100,-0.2632
255.7400,0.5629,0.0199,0.0000,18.0086,-0.2632
255.7500,0.5629,0.0199,0.0000,18.0073,-0.2632
255.7600,0.5629,0.0199,0.0000,18.0059,-0.2632
255.7700,0.5629,0.0199,0.0000,18.0046,-0.2632
255.7800,0.5629,0.0199,0.0000,18.0032,-0.2632
255.7900,0.5629,0.0199,0.0000,18.0019,-0.2632
255.8000,0.5629,0.0199,0.0000,18.0005,-0.2632
255.8100,0.5629,0.0199,0.0000,17.9992,-0.2632
255.8200,0.5629,0.0199,0.0000,17.9979,-0.2632
255.8300,0.5629,0.0199,0.0000,17.9966,-0.2632
255.8400,0.5629,0.0199,0.0000,17.9953,-0.2632
255.8500,0.5629,0.0199,0.0000,17.9940,-0.2632
255.8600,0.5629,0.0199,0.0000,17.9926,-0.2632
255.8700,0.5629,0.0199,0.0000,17.9914,-0.2632
255.8800,0.5629,0.0199,0.0000,17.9901,-0.2632
255.8900,0.5629,0.0199,0.0000,17.9888,-0.2632
255.9000,0.5629,0.0199,0.0000,17.9874,-0.2632
255.9100,0.5629,0.0199,0.0000,17.9861,-0.2632
255.9200,0.5629,0.0199,0.0000,17.9847,-0.2632
255.9300,0.5629,0.0199,0.0000,17.9833,-0.2632
255.9400,0.5629,0.0199,0.0000,17.9822,-0.2632
255.9500,0.5629,0.0199,0.0000,17.9811,-0.2632
255.9600,0.5629,0.0199,0.0000,17.9800,-0.2632
255.9700,0.5629,0.0199,0.0000,17.9789,-0.2632
255.9800,0.5629,0.0199,0.0000,17.9778,-0.2632
255.9900,0.5629,0.0199,0.0000,17.9768,-0.2632
256.0000,0.5629,0.0199,0.0000,17.9757,-0.2632
256.0100,0.5629,0.0199,0.0000,17.9746,-0.2632
256.0200,0.5629,0.0199,0.0000,17.9736,-0.2632
256.0300,0.5629,0.0199,0.0000,17.9725,-0.2632
256.0400,0.5629,0.0199,0.0000,17.9714,-0.2632
256.0500,0.5629,0.0199,0.0000,17.9704,-0.2632
256.0600,0.5629,0.0199,0.0000,17.9693,-0.2632
256.0700,0.5629,0.0199,0.0000,17.9683,-0.2632
256.0800,0.5629,0.0199,0.0000,17.9673,-0.2632
256.0900,0.5629,0.0199,0.0000,17.9662,-0.2632
256.1000,0.5629,0.0199,0.0000,17.9652,-0.2632
256.1100,0.5629,0.0199,0.0000,17.9644,-0.2632
256.1200,0.5629,0.0199,0.0000,17.9635,-0.2632
256.1300,0.5629,0.0199,0.0000,17.9626,-0.2632
256.1400,0.5629,0.0199,0.0000,17.9617,-0.2632
256.1500,0.5629,0.0199,0.0000,17.9608,-0.2632
256.1600,0.5629,0.0199,0.0000,17.9599,-0.2632
256.1700,0.5629,0.0199,0.0000,17.9590,-0.2632
256.1800,0.5629,0.0199,0.0000,17.9581,-0.2632
256.1900,0.5629,0.0199,0.0000,17.9572,-0.2632
256.2000,0.5629,0.0199,0.0000,17.9562,-0.2632
256.2100,0.5629,0.0199,0.0000,17.9553,-0.2632
256.2200,0.5629,0.0199,0.0000,17.9544,-0.2632
256.2300,0.5629,0.0199,0.0000,17.9535,-0.2632
256.2400,0.5629,0.0199,0.0000,17.9526,-0.2632
256.2500,0.5629,0.0199,0.0000,17.9516,-0.2632
256.2600,0.5629,0.0199,0.0000,17.9507,-0.2632
256.2700,0.5629,0.0199,0.0000,17.9498,-0.2632
256.2800,0.5629,0.0199,0.0000,17.9489,-0.2632
256.2900,0.5629,0.0199,0.0000,17.9480,-0.2632
256.3000,0.5629,0.0199,0.0000,17.9471,-0.2632
256.3100,0.5629,0.0199,0.0000,17.9462,-0.2632
256.3200,0.5629,0.0199,0.0000,17.9453,-0.2632
256.3300,0.5629,0.0199,0.0000,17.9444,-0.2632
256.3400,0.5629,0.0199,0.0000,17.9435,-0.2632
256.3500,0.5629,0.0199,0.0000,17.9426,-0.2632
256.3600,0.5629,0.0199,0.0000,17.9417,-0.2632
256.3700,0.5629,0.0199,0.0000,17.9408,-0.2632
256.3800,0.5629,0.0199,0.0000,17.9399,-0.2632
256.3900,0.5629,0.0199,0.0000,17.9390,-0.2632
256.4000,0.5629,0.0199,0.0000,17.9381,-0.2632
256.4100,0.5629,0.0199,0.0000,17.9373,-0.2632
256.4200,0.5629,0.0199,0.0000,17.9364,-0.2632
256.4300,0.5629,0.0199,0.0000,17.9355,-0.2632
256.4400,0.5629,0.0199,0.0000,17.9346,-0.2632
256.4500,0.5629,0.0199,0.0000,17.9338,-0.2632
256.4600,0.5629,0.0199,0.0000,17.9329,-0.2632
256.4700,0.5629,0.0199,0.0000,17.9320,-0.2632
256.4800,0.5629,0.0199,0.0000,17.9312,-0.2632
256.4900,0.5629,0.0199,0.0000,17.9303,-0.2632
256.5000,0.5629,0.0199,0.0000,17.9295,-0.2632
256.5100,0.5629,0.0199,0.0000,17.9286,0.0854
256.5200,0.5629,0.0199,0.0000,17.9278,0.0851
256.5300,0.5629,0.0199,0.0000,17.9269,0.0841
256.5400,0.5629,0.0199,0.0000,17.9261,0.0843
256.5500,0.5629,0.0199,0.0000,17.9252,0.0843
256.5600,0.5629,0.0199,0.0000,17.9244,0.0849
256.5700,0.5629,0.0199,0.0000,17.9235,0.0851
256.5800,0.5629,0.0199,0.0000,17.9227,0.0841
256.5900,0.5629,0.0199,0.0000,17.9218,0.0843
256.6000,0.5629,0.0199,0.0000,17.9210,0.0841
256.6100,0.5629,0.0199,0.0000,17.9202,0.0843
256.6200,0.5629,0.0199,0.0000,17.9193,0.0843
256.6300,0.5629,0.0199,0.0000,17.9185,0.0841
256.6400,0.5629,0.0199,0.0000,17.9176,0.0832
256.6500,0.5629,0.0199,0.0000,17.9168,0.0830
256.6600,0.5629,0.0199,0.0000,17.9160,0.0830
256.6700,0.5629,0.0199,0.0000,17.9152,0.0832
256.6800,0.5629,0.0199,0.0000,17.9143,0.0830
256.6900,0.5629,0.0199,0.0000,17.9135,0.0824
256.7000,0.5629,0.0199,0.0000,17.9127,0.0818
256.7100,0.5629,0.0199,0.0000,17.9119,0.0818
256.7200,0.5629,0.0199,0.0000,17.9110,0.0818
256.7300,0.5629,0.0199,0.0000,17.9102,0.0818
256.7400,0.5629,0.0199,0.0000,17.9094,0.0816
256.7500,0.5629,0.0199,0.0000,17.9086,0.0818
256.7600,0.5629,0.0199,0.0000,17.9078,0.0813
256.7700,0.5629,0.0199,0.0000,17.9070,0.0807
256.7800,0.5629,0.0199,0.0000,17.9062,0.0805
256.7900,0.5629,0.0199,0.0000,17.9054,0.0807
256.8000,0.5629,0.0199,0.0000,17.9045,0.0816
256.8100,0.5629,0.0199,0.0000,17.9037,0.0818
256.8200,0.5629,0.0199,0.0000,17.9029,0.0818
256.8300,0.5629,0.0199,0.0000,17.9021,0.0805
256.8400,0.5629,0.0199,0.0000,17.9013,0.0807
256.8500,0.5629,0.0199,0.0000,17.9005,0.0805
256.8600,0.5629,0.0199,0.0000,17.8997,0.0807
256.8700,0.5629,0.0199,0.0000,17.8989,0.0805
256.8800,0.5629,0.0199,0.0000,17.8981,0.0805
256.8900,0.5629,0.0199,0.0000,17.8973,0.0807
256.9000,0.5629,0.0199,0.0000,17.8965,0.0799
256.9100,0.5629,0.0199,0.0000,17.8957,0.0793
256.9200,0.5629,0.0199,0.0000,17.8949,0.0793
256.9300,0.5629,0.0199,0.0000,17.8941,0.0793
256.9400,0.5629,0.0199,0.0000,17.8933,0.0793
256.9500,0.5629,0.0199,0.0000,17.8925,0.0793
256.9600,0.5629,0.0199,0.0000,17.8917,0.0793
256.9700,0.5629,0.0199,0.0000,17.8909,0.0793
256.9800,0.5629,0.0199,0.0000,17.8901,0.0793
256.9900,0.5629,0.0199,0.0000,17.8893,0.0782
257.0000,0.5629,0.0199,0.0000,17.8886,0.0780
257.0100,0.5629,0.0199,0.0000,17.8878,0.0782
257.0200,0.5629,0.0199,0.0000,17.8870,0.0780
257.0300,0.5629,0.0199,0.0000,17.8862,0.0782
257.0400,0.5629,0.0199,0.0000,17.8854,0.0778
257.0500,0.5629,0.0199,0.0000,17.8847,0.0769
257.0600,0.5629,0.0199,0.0000,17.8839,0.0769
257.0700,0.5629,0.0199,0.0000,17.8831,0.0769
257.0800,0.5629,0.0199,0.0000,17.8824,0.0771
257.0900,0.5629,0.0199,0.0000,17.8816,0.0769
257.1000,0.5629,0.0199,0.0000,17.8808,0.0769
257.1100,0.5629,0.0199,0.0000,17.8801,0.0769
257.1200,0.5629,0.0199,0.0000,17.8793,0.0765
257.1300,0.5629,0.0199,0.0000,17.8785,0.0757
257.1400,0.5629,0.0199,0.0000,17.8778,0.0757
257.1500,0.5629,0.0199,0.0000,17.8770,0.0757
257.1600,0.5629,0.0199,0.0000,17.8763,0.0757
257.1700,0.5629,0.0199,0.0000,17.8755,0.0755
257.1800,0.5629,0.0199,0.0000,17.8748,0.0757
257.1900,0.5629,0.0199,0.0000,17.8740,0.0757
257.2000,0.5629,0.0199,0.0000,17.8732,0.0757
257.2100,0.5629,0.0199,0.0000,17.8725,0.0744
257.2200,0.5629,0.0199,0.0000,17.8717,0.0746
257.2300,0.5629,0.0199,0.0000,17.8710,0.0744
257.2400,0.5629,0.0199,0.0000,17.8703,0.0738
257.2500,0.5629,0.0199,0.0000,17.8695,0.0732
257.2600,0.5629,0.0199,0.0000,17.8688,0.0732
257.2700,0.5629,0.0199,0.0000,17.8681,0.0732
257.2800,0.5629,0.0199,0.0000,17.8673,0.0732
257.2900,0.5629,0.0199,0.0000,17.8666,0.0732
257.3000,0.5629,0.0199,0.0000,17.8659,0.0721
257.3100,0.5629,0.0199,0.0000,17.8652,0.0719
257.3200,0.5629,0.0199,0.0000,17.8644,0.0721
257.3300,0.5629,0.0199,0.0000,17.8637,0.0721
257.3400,0.5629,0.0199,0.0000,17.8630,0.0719
257.3500,0.5629,0.0199,0.0000,17.8623,0.0721
257.3600,0.5629,0.0199,0.0000,17.8616,0.0719
257.3700,0.5629,0.0199,0.0000,17.8608,0.0721
257.3800,0.5629,0.0199,0.0000,17.8601,0.0717
257.3900,0.5629,0.0199,0.0000,17.8594,0.0710
257.4000,0.5629,0.0199,0.0000,17.8587,0.0708
257.4100,0.5629,0.0199,0.0000,17.8580,0.0708
257.4200,0.5629,0.0199,0.0000,17.8573,0.0708
257.4300,0.5629,0.0199,0.0000,17.8566,0.0708
257.4400,0.5629,0.0199,0.0000,17.8559,0.0710
257.4500,0.5629,0.0199,0.0000,17.8552,0.0708
257.4600,0.5629,0.0199,0.0000,17.8545,0.0708
257.4700,0.5629,0.0199,0.0000,17.8538,0.0700
257.4800,0.5629,0.0199,0.0000,17.8531,0.0694
257.4900,0.5629,0.0199,0.0000,17.8524,0.0696
257.5000,0.5629,0.0199,0.0000,17.8517,0.0696
257.5100,0.5629,0.0199,0.0000,17.8510,0.0696
257.5200,0.5629,0.0199,0.0000,17.8503,0.0696
257.5300,0.5629,0.0199,0.0000,17.8496,0.0694
257.5400,0.5629,0.0199,0.0000,17.8489,0.0696
257.5500,0.5629,0.0199,0.0000,17.8482,0.0694
257.5600,0.5629,0.0199,0.0000,17.8475,0.0685
257.5700,0.5629,0.0199,0.0000,17.8468,0.0683
257.5800,0.5629,0.0199,0.0000,17.8461,0.0685
257.5900,0.5629,0.0199,0.0000,17.8455,0.0683
257.6000,0.5629,0.0199,0.0000,17.8448,0.0683
257.6100,0.5629,0.0199,0.0000,17.8441,0.0685
257.6200,0.5629,0.0199,0.0000,17.8434,0.0683
257.6300,0.5629,0.0199,0.0000,17.8427,0.0685
257.6400,0.5629,0.0199,0.0000,17.8420,0.0677
257.6500,0.5629,0.0199,0.0000,17.8414,0.0671
257.6600,0.5629,0.0199,0.0000,17.8407,0.0671
257.6700,0.5629,0.0199,0.0000,17.8400,0.0671
257.6800,0.5629,0.0199,0.0000,17.8394,0.0671
257.6900,0.5629,0.0199,0.0000,17.8387,0.0671
257.7000,0.5629,0.0199,0.0000,17.8380,0.0671
257.7100,0.5629,0.0199,0.0000,17.8373,0.0671
257.7200,0.5629,0.0199,0.0000,17.8367,0.0671
257.7300,0.5629,0.0199,0.0000,17.8360,0.0660
257.7400,0.5629,0.0199,0.0000,17.8354,0.0660
257.7500,0.5629,0.0199,0.0000,17.8347,0.0658
257.7600,0.5629,0.0199,0.0000,17.8340,0.0660
257.7700,0.5629,0.0199,0.0000,17.8334,0.0658
257.7800,0.5629,0.0199,0.0000,17.8327,0.0660
257.7900,0.5629,0.0199,0.0000,17.8321,0.0660
257.8000,0.5629,0.0199,0.0000,17.8314,0.0658
257.8100,0.5629,0.0199,0.0000,17.8307,0.0660
257.8200,0.5629,0.0199,0.0000,17.8301,0.0647
257.8300,0.5629,0.0199,0.0000,17.8295,0.0647
257.8400,0.5629,0.0199,0.0000,17.8288,0.0647
257.8500,0.5629,0.0199,0.0000,17.8282,0.0648
257.8600,0.5629,0.0199,0.0000,17.8275,0.0647
257.8700,0.5629,0.0199,0.0000,17.8269,0.0647
257.8800,0.5629,0.0199,0.0000,17.8262,0.0647
257.8900,0.5629,0.0199,0.0000,17.8256,0.0647
257.9000,0.5629,0.0199,0.0000,17.8249,0.0648
257.9100,0.5629,0.0199,0.0000,17.8243,0.0635
257.9200,0.5629,0.0199,0.0000,17.8237,0.0635
257.9300,0.5629,0.0199,0.0000,17.8230,0.0635
257.9400,0.5629,0.0199,0.0000,17.8224,0.0633
257.9500,0.5629,0.0199,0.0000,17.8217,0.0635
257.9600,0.5629,0.0199,0.0000,17.8211,0.0635
257.9700,0.5629,0.0199,0.0000,17.8205,0.0635
257.9800,0.5629,0.0199,0.0000,17.8198,0.0635
257.9900,0.5629,0.0199,0.0000,17.8192,0.0633
258.0000,0.5629,0.0199,0.0000,17.8186,0.0626
258.0100,0.5629,0.0199,0.0000,17.8180,0.0622
258.0200,0.5629,0.0199,0.0000,17.8173,0.0622
258.0300,0.5629,0.0199,0.0000,17.8167,0.0624
258.0400,0.5629,0.0199,0.0000,17.8161,0.0622
258.0500,0.5629,0.0199,0.0000,17.8155,0.0624
258.0600,0.5629,0.0199,0.0000,17.8148,0.0622
258.0700,0.5629,0.0199,0.0000,17.8142,0.0622
258.0800,0.5629,0.0199,0.0000,17.8136,0.0624
258.0900,0.5629,0.0199,0.0000,17.8130,0.0616
258.1000,0.5629,0.0199,0.0000,17.8124,0.0610
258.1100,0.5629,0.0199,0.0000,17.8118,0.0610
258.1200,0.5629,0.0199,0.0000,17.8112,0.0610
258.1300,0.5629,0.0199,0.0000,17.8105,0.0610
258.1400,0.5629,0.0199,0.0000,17.8099,0.0610
258.1500,0.5629,0.0199,0.0000,17.8093,0.0610
258.1600,0.5629,0.0199,0.0000,17.8087,0.0610
258.1700,0.5629,0.0199,0.0000,17.8081,0.0610
258.1800,0.5629,0.0199,0.0000,17.8075,0.0608
258.1900,0.5629,0.0199,0.0000,17.8069,0.0599
258.2000,0.5629,0.0199,0.0000,17.8063,0.0597
258.2100,0.5629,0.0199,0.0000,17.8057,0.0599
258.2200,0.5629,0.0199,0.0000,17.8051,0.0599
258.2300,0.5629,0.0199,0.0000,17.8045,0.0597
258.2400,0.5629,0.0199,0.0000,17.8039,0.0599
258.2500,0.5629,0.0199,0.0000,17.8033,0.0597
258.2600,0.5629,0.0199,0.0000,17.8027,0.0599
258.2700,0.5629,0.0199,0.0000,17.8021,0.0599
258.2800,0.5629,0.0199,0.0000,17.8015,0.0597
258.2900,0.5629,0.0199,0.0000,17.8009,0.0586
258.3000,0.5629,0.0199,0.0000,17.8003,0.0586
258.3100,0.5629,0.0199,0.0000,17.7998,0.0586
258.3200,0.5629,0.0199,0.0000,17.7992,0.0586
258.3300,0.5629,0.0199,0.0000,17.7986,0.0587
258.3400,0.5629,0.0199,0.0000,17.7980,0.0586
258.3500,0.5629,0.0199,0.0000,17.7974,0.0586
258.3600,0.5629,0.0199,0.0000,17.7968,0.0586
258.3700,0.5629,0.0199,0.0000,17.7962,0.0586
258.3800,0.5629,0.0199,0.0000,17.7957,0.0584
258.3900,0.5629,0.0199,0.0000,17.7951,0.0574
258.4000,0.5629,0.0199,0.0000,17.7945,0.0574
258.4100,0.5629,0.0199,0.0000,17.7939,0.0574
258.4200,0.5629,0.0199,0.0000,17.7934,0.0557
258.4300,0.5629,0.0199,0.0000,17.7928,0.0549
258.4400,0.5629,0.0199,0.0000,17.7923,0.0549
258.4500,0.5629,0.0199,0.0000,17.7917,0.0549
258.4600,0.5629,0.0199,0.0000,17.7912,0.0536
258.4700,0.5629,0.0199,0.0000,17.7907,0.0538
258.4800,0.5629,0.0199,0.0000,17.7901,0.0536
258.4900,0.5629,0.0199,0.0000,17.7896,0.0538
258.5000,0.5629,0.0199,0.0000,17.7890,0.0538
258.5100,0.5629,0.0199,0.0000,17.7885,0.0536
258.5200,0.5629,0.0199,0.0000,17.7880,0.0538
258.5300,0.5629,0.0199,0.0000,17.7874,0.0536
258.5400,0.5629,0.0199,0.0000,17.7869,0.0538
258.5500,0.5629,0.0199,0.0000,17.7864,0.0538
258.5600,0.5629,0.0199,0.0000,17.7858,0.0536
258.5700,0.5629,0.0199,0.0000,17.7853,0.0538
258.5800,0.5629,0.0199,0.0000,17.7847,0.0536
258.5900,0.5629,0.0199,0.0000,17.7842,0.0525
258.6000,0.5629,0.0199,0.0000,17.7837,0.0525
258.6100,0.5629,0.0199,0.0000,17.7832,0.0525
258.6200,0.5629,0.0199,0.0000,17.7826,0.0526
258.6300,0.5629,0.0199,0.0000,17.7821,0.0525
258.6400,0.5629,0.0199,0.0000,17.7816,0.0525
258.6500,0.5629,0.0199,0.0000,17.7811,0.0525
258.6600,0.5629,0.0199,0.0000,17.7806,0.0525
258.6700,0.5629,0.0199,0.0000,17.7800,0.0526
258.6800,0.5629,0.0199,0.0000,17.7795,0.0525
258.6900,0.5629,0.0199,0.0000,17.7790,0.0525
258.7000,0.5629,0.0199,0.0000,17.7785,0.0525
258.7100,0.5629,0.0199,0.0000,17.7779,0.0525
258.7200,0.5629,0.0199,0.0000,17.7774,0.0513
258.7300,0.5629,0.0199,0.0000,17.7769,0.0511
258.7400,0.5629,0.0199,0.0000,17.7764,0.0513
258.7500,0.5629,0.0199,0.0000,17.7759,0.0513
258.7600,0.5629,0.0199,0.0000,17.7754,0.0513
258.7700,0.5629,0.0199,0.0000,17.7749,0.0513
258.7800,0.5629,0.0199,0.0000,17.7743,0.0511
258.7900,0.5629,0.0199,0.0000,17.7738,0.0513
258.8000,0.5629,0.0199,0.0000,17.7733,0.0513
258.8100,0.5629,0.0199,0.0000,17.7728,0.0507
258.8200,0.5629,0.0199,0.0000,17.7723,0.0500
258.8300,0.5629,0.0199,0.0000,17.7718,0.0500
258.8400,0.5629,0.0199,0.0000,17.7713,0.0502
258.8500,0.5629,0.0199,0.0000,17.7708,0.0500
258.8600,0.5629,0.0199,0.0000,17.7703,0.0502
258.8700,0.5629,0.0199,0.0000,17.7698,0.0500
258.8800,0.5629,0.0199,0.0000,17.7693,0.0500
258.8900,0.5629,0.0199,0.0000,17.7688,0.0502
258.9000,0.5629,0.0199,0.0000,17.7683,0.0500
258.9100,0.5629,0.0199,0.0000,17.7678,0.0502
258.9200,0.5629,0.0199,0.0000,17.7673,0.0488
258.9300,0.5629,0.0199,0.0000,17.7668,0.0488
258.9400,0.5629,0.0199,0.0000,17.7663,0.0488
258.9500,0.5629,0.0199,0.0000,17.7658,0.0488
258.9600,0.5629,0.0199,0.0000,17.7654,0.0488
258.9700,0.5629,0.0199,0.0000,17.7649,0.0488
258.9800,0.5629,0.0199,0.0000,17.7644,0.0463
258.9900,0.5629,0.0199,0.0000,17.7641,0.0355
259.0000,0.5629,0.0199,0.0000,17.7637,0.0336
259.0100,0.5629,0.0199,0.0000,17.7634,0.0324
259.0200,0.5629,0.0199,0.0000,17.7631,0.0319
259.0300,0.5629,0.0199,0.0000,17.7628,0.0311
259.0400,0.5629,0.0199,0.0000,17.7625,0.0305
259.0500,0.5629,0.0199,0.0000,17.7622,0.0305
259.0600,0.5629,0.0199,0.0000,17.7618,0.0305
259.0700,0.5629,0.0199,0.0000,17.7615,0.0305
259.0800,0.5629,0.0199,0.0000,17.7612,0.0309
259.0900,0.5629,0.0199,0.0000,17.7609,0.0319
259.1000,0.5629,0.0199,0.0000,17.7606,0.0317
259.1100,0.5629,0.0199,0.0000,17.7603,0.0319
259.1200,0.5629,0.0199,0.0000,17.7600,0.0317
259.1300,0.5629,0.0199,0.0000,17.7596,0.0320
259.1400,0.5629,0.0199,0.0000,17.7593,0.0328
259.1500,0.5629,0.0199,0.0000,17.7590,0.0305
259.1600,0.5629,0.0199,0.0000,17.7587,0.0273
259.1700,0.5629,0.0199,0.0000,17.7584,0.0288
259.1800,0.5629,0.0199,0.0000,17.7581,0.0305
259.1900,0.5629,0.0199,0.0000,17.7578,0.0315
259.2000,0.5629,0.0199,0.0000,17.7575,0.0317
259.2100,0.5629,0.0199,0.0000,17.7572,0.0330
259.2200,0.5629,0.0199,0.0000,17.7569,0.0330
259.2300,0.5629,0.0199,0.0000,17.7565,0.0328
259.2400,0.5629,0.0199,0.0000,17.7562,0.0330
259.2500,0.5629,0.0199,0.0000,17.7559,0.0330
259.2600,0.5629,0.0199,0.0000,17.7555,0.0330
259.2700,0.5629,0.0199,0.0000,17.7552,0.0330
259.2800,0.5629,0.0199,0.0000,17.7549,0.0328
259.2900,0.5629,0.0199,0.0000,17.7546,0.0322
259.3000,0.5629,0.0199,0.0000,17.7542,0.0319
259.3100,0.5629,0.0199,0.0000,17.7539,0.0317
259.3200,0.5629,0.0199,0.0000,17.7536,0.0319
259.3300,0.5629,0.0199,0.0000,17.7533,0.0317
259.3400,0.5629,0.0199,0.0000,17.7530,0.0317
259.3500,0.5629,0.0199,0.0000,17.7527,0.0309
259.3600,0.5629,0.0199,0.0000,17.7524,0.0305
259.3700,0.5629,0.0199,0.0000,17.7521,0.0286
259.3800,0.5629,0.0199,0.0000,17.7520,0.0076
259.3900,0.5629,0.0199,0.0000,17.7520,0.0034
259.4000,0.5629,0.0199,0.0000,17.7520,0.0006
259.4100,0.5629,0.0199,0.0000,17.7520,-0.0011
259.4200,0.5629,0.0199,0.0000,17.7520,-0.0025
259.4300,0.5629,0.0199,0.0000,17.7520,-0.0036
259.4400,0.5629,0.0199,0.0000,17.7521,-0.0036
259.4500,0.5629,0.0199,0.0000,17.7521,-0.0036
259.4600,0.5629,0.0199,0.0000,17.7521,-0.0036
259.4700,0.5629,0.0199,0.0000,17.7522,-0.0038
259.4800,0.5629,0.0199,0.0000,17.7522,-0.0031
259.4900,0.5629,0.0199,0.0000,17.7522,-0.0025
259.5000,0.5629,0.0199,0.0000,17.7522,-0.0023
259.5100,0.5629,0.0199,0.0000,17.7523,-0.0013
259.5200,0.5629,0.0199,0.0000,17.7523,-0.0013
259.5300,0.5629,0.0199,0.0000,17.7523,0.0000
259.5400,0.5629,0.0199,0.0000,17.7523,-0.0029
259.5500,0.5629,0.0199,0.0000,17.7524,-0.0090
259.5600,0.5629,0.0199,0.0000,17.7524,-0.0053
259.5700,0.5629,0.0199,0.0000,17.7525,-0.0027
259.5800,0.5629,0.0199,0.0000,17.7525,-0.0008
259.5900,0.5629,0.0199,0.0000,17.7525,0.0002
259.6000,0.5629,0.0199,0.0000,17.7525,0.0011
259.6100,0.5629,0.0199,0.0000,17.7525,0.0017
259.6200,0.5629,0.0199,0.0000,17.7524,0.0023
259.6300,0.5629,0.0199,0.0000,17.7524,0.0025
259.6400,0.5629,0.0199,0.0000,17.7524,0.0023
259.6500,0.5629,0.0199,0.0000,17.7524,0.0015
259.6600,0.5629,0.0199,0.0000,17.7523,0.0015
259.6700,0.5629,0.0199,0.0000,17.7523,0.0011
259.6800,0.5629,0.0199,0.0000,17.7523,0.0011
259.6900,0.5629,0.0199,0.0000,17.7523,0.0010
259.7000,0.5629,0.0199,0.0000,17.7523,0.0000
259.7100,0.5629,0.0199,0.0000,17.7523,0.0000
259.7200,0.5629,0.0199,0.0000,17.7523,-0.0002
259.7300,0.5629,0.0199,0.0000,17.7523,0.0000
259.7400,0.5629,0.0199,0.0000,17.7523,-0.0011
259.7500,0.5629,0.0199,0.0000,17.7523,-0.0013
259.7600,0.5629,0.0199,0.0000,17.7524,-0.0011
259.7700,0.5629,0.0199,0.0000,17.7526,-0.0204
259.7800,0.5629,0.0199,0.0000,17.7528,-0.0256
259.7900,0.5629,0.0199,0.0000,17.7531,-0.0290
259.8000,0.5629,0.0199,0.0000,17.7534,-0.0311
259.8100,0.5629,0.0199,0.0000,17.7537,-0.0330
259.8200,0.5629,0.0199,0.0000,17.7541,-0.0341
259.8300,0.5629,0.0199,0.0000,17.7544,-0.0347
259.8400,0.5629,0.0199,0.0000,17.7548,-0.0353
259.8500,0.5629,0.0199,0.0000,17.7551,-0.0355
259.8600,0.5629,0.0199,0.0000,17.7555,-0.0355
259.8700,0.5629,0.0199,0.0000,17.7558,-0.0347
259.8800,0.5629,0.0199,0.0000,17.7562,-0.0341
259.8900,0.5629,0.0199,0.0000,17.7565,-0.0341
259.9000,0.5629,0.0199,0.0000,17.7569,-0.0334
259.9100,0.5629,0.0199,0.0000,17.7572,-0.0330
259.9200,0.5629,0.0199,0.0000,17.7575,-0.0324
259.9300,0.5629,0.0199,0.0000,17.7578,-0.0332
259.9400,0.5629,0.0199,0.0000,17.7582,-0.0393
259.9500,0.5629,0.0199,0.0000,17.7586,-0.0355
259.9600,0.5629,0.0199,0.0000,17.7589,-0.0330
259.9700,0.5629,0.0199,0.0000,17.7592,-0.0315
259.9800,0.5629,0.0199,0.0000,17.7595,-0.0303
259.9900,0.5629,0.0199,0.0000,17.7598,-0.0294
260.0000,0.5629,0.0199,0.0000,17.7601,-0.0292
260.0100,0.5629,0.0199,0.0000,17.7604,-0.0294
260.0200,0.5629,0.0199,0.0000,17.7607,-0.0294
260.0300,0.5629,0.0199,0.0000,17.7610,-0.0292
260.0400,0.5629,0.0199,0.0000,17.7613,-0.0294
260.0500,0.5629,0.0199,0.0000,17.7616,-0.0292
260.0600,0.5629,0.0199,0.0000,17.7619,-0.0299
260.0700,0.5629,0.0199,0.0000,17.7622,-0.0305
260.0800,0.5629,0.0199,0.0000,17.7625,-0.0305
260.0900,0.5629,0.0199,0.0000,17.7628,-0.0305
260.1000,0.5629,0.0199,0.0000,17.7631,-0.0305
260.1100,0.5629,0.0199,0.0000,17.7634,-0.0315
260.1200,0.5629,0.0199,0.0000,17.7637,-0.0315
260.1300,0.5629,0.0199,0.0000,17.7641,-0.0319
260.1400,0.5629,0.0199,0.0000,17.7644,-0.0319
260.1500,0.5629,0.0199,0.0000,17.7647,-0.0322
260.1600,0.5629,0.0199,0.0000,17.7652,-0.0462
260.1700,0.5629,0.0199,0.0000,17.7657,-0.0532
260.1800,0.5629,0.0199,0.0000,17.7663,-0.0570
260.1900,0.5629,0.0199,0.0000,17.7669,-0.0597
260.2000,0.5629,0.0199,0.0000,17.7675,-0.0616
260.2100,0.5629,0.0199,0.0000,17.7681,-0.0631
260.2200,0.5629,0.0199,0.0000,17.7687,-0.0637
260.2300,0.5629,0.0199,0.0000,17.7694,-0.0645
260.2400,0.5629,0.0199,0.0000,17.7700,-0.0645
260.2500,0.5629,0.0199,0.0000,17.7707,-0.0648
260.2600,0.5629,0.0199,0.0000,17.7713,-0.0643
260.2700,0.5629,0.0199,0.0000,17.7720,-0.0641
260.2800,0.5629,0.0199,0.0000,17.7726,-0.0635
260.2900,0.5629,0.0199,0.0000,17.7732,-0.0631
260.3000,0.5629,0.0199,0.0000,17.7739,-0.0626
260.3100,0.5629,0.0199,0.0000,17.7745,-0.0624
260.3200,0.5629,0.0199,0.0000,17.7751,-0.0614
260.3300,0.5629,0.0199,0.0000,17.7758,-0.0671
260.3400,0.5629,0.0199,0.0000,17.7764,-0.0631
260.3500,0.5629,0.0199,0.0000,17.7770,-0.0610
260.3600,0.5629,0.0199,0.0000,17.7776,-0.0593
260.3700,0.5629,0.0199,0.0000,17.7782,-0.0587
260.3800,0.5629,0.0199,0.0000,17.7788,-0.0580
260.3900,0.5629,0.0199,0.0000,17.7793,-0.0574
260.4000,0.5629,0.0199,0.0000,17.7799,-0.0574
260.4100,0.5629,0.0199,0.0000,17.7805,-0.0574
260.4200,0.5629,0.0199,0.0000,17.7811,-0.0576
260.4300,0.5629,0.0199,0.0000,17.7817,-0.0580
260.4400,0.5629,0.0199,0.0000,17.7822,-0.0584
260.4500,0.5629,0.0199,0.0000,17.7828,-0.0586
260.4600,0.5629,0.0199,0.0000,17.7834,-0.0586
260.4700,0.5629,0.0199,0.0000,17.7840,-0.0591
260.4800,0.5629,0.0199,0.0000,17.7846,-0.0597
260.4900,0.5629,0.0199,0.0000,17.7852,-0.0599
260.5000,0.5629,0.0199,0.0000,17.7858,-0.0599
260.5100,0.5629,0.0199,0.0000,17.7864,-0.0603
260.5200,0.5629,0.0199,0.0000,17.7870,-0.0603
260.5300,0.5629,0.0199,0.0000,17.7876,-0.0610
260.5400,0.5629,0.0199,0.0000,17.7882,-0.0608
260.5500,0.5629,0.0199,0.0000,17.7889,-0.0671
260.5600,0.5629,0.0199,0.0000,17.7896,-0.0702
260.5700,0.5629,0.0199,0.0000,17.7903,-0.0725
260.5800,0.5629,0.0199,0.0000,17.7911,-0.0740
260.5900,0.5629,0.0199,0.0000,17.7918,-0.0748
260.6000,0.5436,0.0007,0.0000,17.7926,-0.0755
260.6100,0.5436,0.0007,0.0000,17.7933,-0.0713
260.6200,0.5436,0.0007,0.0000,17.7938,-0.0547
260.6300,0.5436,0.0007,0.0000,17.7942,-0.0372
260.6400,0.5436,0.0007,0.0000,17.7944,-0.0210
260.6500,0.5436,0.0007,0.0000,17.7945,-0.0059
260.6600,0.5436,0.0007,0.0000,17.7944,0.0082
260.6700,0.5436,0.0007,0.0000,17.7942,0.0214
260.6800,0.5436,0.0007,0.0000,17.7938,0.0334
260.6900,0.5436,0.0007,0.0000,17.7934,0.0444
260.7000,0.5436,0.0007,0.0000,17.7928,0.0547
260.7100,0.5436,0.0007,0.0000,17.7922,0.0648
260.7200,0.5436,0.0007,0.0000,17.7915,0.0711
260.7300,0.5436,0.0007,0.0000,17.7907,0.0811
260.7400,0.5436,0.0007,0.0000,17.7898,0.0893
260.7500,0.5436,0.0007,0.0000,17.7888,0.0969
260.7600,0.5436,0.0007,0.0000,17.7878,0.1032
260.7700,0.5436,0.0007,0.0000,17.7867,0.1097
260.7800,0.5436,0.0007,0.0000,17.7855,0.1148
260.7900,0.5436,0.0007,0.0000,17.7843,0.1200
260.8000,0.5436,0.0007,0.0000,17.7831,0.1242
260.8100,0.5436,0.0007,0.0000,17.7818,0.1286
260.8200,0.5436,0.0007,0.0000,17.7805,0.1320
260.8300,0.5436,0.0007,0.0000,17.7791,0.1352
260.8400,0.5436,0.0007,0.0000,17.7777,0.1381
260.8500,0.5436,0.0007,0.0000,17.7763,0.1411
260.8600,0.5436,0.0007,0.0000,17.7749,0.1438
260.8700,0.5436,0.0007,0.0000,17.7734,0.1461
260.8800,0.5436,0.0007,0.0000,17.7720,0.1480
260.8900,0.5436,0.0007,0.0000,17.7705,0.1499
260.9000,0.5436,0.0007,0.0000,17.7689,0.1516
260.9100,0.5436,0.0007,0.0000,17.7674,0.1534
260.9200,0.5436,0.0007,0.0000,17.7659,0.1549
260.9300,0.5436,0.0007,0.0000,17.7643,0.1560
260.9400,0.5436,0.0007,0.0000,17.7627,0.1577
260.9500,0.5436,0.0007,0.0000,17.7611,0.1583
260.9600,0.5436,0.0007,0.0000,17.7595,0.1596
260.9700,0.5436,0.0007,0.0000,17.7579,0.1600
260.9800,0.5436,0.0007,0.0000,17.7563,0.1610
260.9900,0.5436,0.0007,0.0000,17.7547,0.1619
261.0000,0.5436,0.0007,0.0000,17.7531,0.1625
261.0100,0.5436,0.0007,0.0000,17.7515,0.1629
261.0200,0.5436,0.0007,0.0000,17.7498,0.1635
261.0300,0.5436,0.0007,0.0000,17.7482,0.1637
261.0400,0.5436,0.0007,0.0000,17.7465,0.1640
261.0500,0.5436,0.0007,0.0000,17.7449,0.1644
261.0600,0.5436,0.0007,0.0000,17.7433,0.1650
261.0700,0.5436,0.0007,0.0000,17.7416,0.1650
261.0800,0.5436,0.0007,0.0000,17.7400,0.1650
261.0900,0.5436,0.0007,0.0000,17.7383,0.1656
261.1000,0.5436,0.0007,0.0000,17.7366,0.1656
261.1100,0.5436,0.0007,0.0000,17.7350,0.1654
261.1200,0.5436,0.0007,0.0000,17.7333,0.1657
261.1300,0.5436,0.0007,0.0000,17.7317,0.1654
261.1400,0.5436,0.0007,0.0000,17.7300,0.1659
261.1500,0.5436,0.0007,0.0000,17.7284,0.1659
261.1600,0.5436,0.0007,0.0000,17.7267,0.1661
261.1700,0.5436,0.0007,0.0000,17.7250,0.1657
261.1800,0.5436,0.0007,0.0000,17.7234,0.1654
261.1900,0.5436,0.0007,0.0000,17.7217,0.1652
261.2000,0.5436,0.0007,0.0000,17.7201,0.1648
261.2100,0.5436,0.0007,0.0000,17.7184,0.1648
261.2200,0.5436,0.0007,0.0000,17.7168,0.1648
261.2300,0.5436,0.0007,0.0000,17.7151,0.1648
261.2400,0.5436,0.0007,0.0000,17.7135,0.1644
261.2500,0.5436,0.0007,0.0000,17.7119,0.1638
261.2600,0.5436,0.0007,0.0000,17.7102,0.1638
261.2700,0.5436,0.0007,0.0000,17.7086,0.1637
261.2800,0.5436,0.0007,0.0000,17.7069,0.1637
261.2900,0.5436,0.0007,0.0000,17.7053,0.1635
261.3000,0.5436,0.0007,0.0000,17.7037,0.1635
261.3100,0.5436,0.0007,0.0000,17.7021,0.1629
261.3200,0.5436,0.0007,0.0000,17.7004,0.1627
261.3300,0.5436,0.0007,0.0000,17.6988,0.1623
261.3400,0.5436,0.0007,0.0000,17.6972,0.1623
261.3500,0.5436,0.0007,0.0000,17.6909,0.6302
261.3600,0.5436,0.0007,0.0000,17.6856,0.5281
261.3700,0.5436,0.0007,0.0000,17.6837,0.1898
261.3800,0.5436,0.0007,0.0000,17.6819,0.1814
261.3900,0.5436,0.0007,0.0000,17.6801,0.1801
261.4000,0.5436,0.0007,0.0000,17.6783,0.1781
261.4100,0.5436,0.0007,0.0000,17.6765,0.1762
261.4200,0.5436,0.0007,0.0000,17.6748,0.1741
261.4300,0.5436,0.0007,0.0000,17.6731,0.1728
261.4400,0.5436,0.0007,0.0000,17.6714,0.1715
261.4500,0.5436,0.0007,0.0000,17.6697,0.1696
261.4600,0.5436,0.0007,0.0000,17.6680,0.1682
261.4700,0.5436,0.0007,0.0000,17.6663,0.1673
261.4800,0.5436,0.0007,0.0000,17.6646,0.1661
261.4900,0.5436,0.0007,0.0000,17.6630,0.1648
261.5000,0.5436,0.0007,0.0000,17.6614,0.1640
261.5100,0.5436,0.0007,0.0000,17.6597,0.1627
261.5200,0.5436,0.0007,0.0000,17.6581,0.1621
261.5300,0.5436,0.0007,0.0000,17.6565,0.1612
261.5400,0.5436,0.0007,0.0000,17.6549,0.1602
261.5500,0.5436,0.0007,0.0000,17.6533,0.1593
261.5600,0.5436,0.0007,0.0000,17.6517,0.1587
261.5700,0.5436,0.0007,0.0000,17.6501,0.1577
261.5800,0.5436,0.0007,0.0000,17.6486,0.1572
261.5900,0.5436,0.0007,0.0000,17.6470,0.1566
261.6000,0.5436,0.0007,0.0000,17.6454,0.1560
261.6100,0.5436,0.0007,0.0000,17.6439,0.1554
261.6200,0.5436,0.0007,0.0000,17.6423,0.1549
261.6300,0.5436,0.0007,0.0000,17.6408,0.1541
261.6400,0.5436,0.0007,0.0000,17.6393,0.1537
261.6500,0.5436,0.0007,0.0000,17.6377,0.1532
261.6600,0.5436,0.0007,0.0000,17.6362,0.1526
261.6700,0.5436,0.0007,0.0000,17.6347,0.1518
261.6800,0.5436,0.0007,0.0000,17.6332,0.1516
261.6900,0.5436,0.0007,0.0000,17.6316,0.1513
261.7000,0.5436,0.0007,0.0000,17.6301,0.1507
261.7100,0.5436,0.0007,0.0000,17.6286,0.1501
261.7200,0.5436,0.0007,0.0000,17.6271,0.1499
261.7300,0.5436,0.0007,0.0000,17.6256,0.1493
261.7400,0.5436,0.0007,0.0000,17.6242,0.1488
261.7500,0.5436,0.0007,0.0000,17.6227,0.1486
261.7600,0.5436,0.0007,0.0000,17.6212,0.1480
261.7700,0.5436,0.0007,0.0000,17.6197,0.1476
261.7800,0.5436,0.0007,0.0000,17.6182,0.1472
261.7900,0.5436,0.0007,0.0000,17.6168,0.1469
261.8000,0.5436,0.0007,0.0000,17.6153,0.1465
261.8100,0.5436,0.0007,0.0000,17.6139,0.1459
261.8200,0.5436,0.0007,0.0000,17.6124,0.1455
261.8300,0.5436,0.0007,0.0000,17.6109,0.1453
261.8400,0.5436,0.0007,0.0000,17.6095,0.1450
261.8500,0.5436,0.0007,0.0000,17.6080,0.1446
261.8600,0.5436,0.0007,0.0000,17.6066,0.1440
261.8700,0.5436,0.0007,0.0000,17.6052,0.1440
261.8800,0.5436,0.0007,0.0000,17.6037,0.1434
261.8900,0.5436,0.0007,0.0000,17.6023,0.1432
261.9000,0.5436,0.0007,0.0000,17.6009,0.1431
261.9100,0.5436,0.0007,0.0000,17.5995,0.1415
261.9200,0.5436,0.0007,0.0000,17.5980,0.1410
261.9300,0.5436,0.0007,0.0000,17.5966,0.1406
261.9400,0.5436,0.0007,0.0000,17.5952,0.1404
261.9500,0.5436,0.0007,0.0000,17.5938,0.1402
261.9600,0.5436,0.0007,0.0000,17.5924,0.1396
261.9700,0.5436,0.0007,0.0000,17.5910,0.1394
261.9800,0.5436,0.0007,0.0000,17.5897,0.1390
261.9900,0.5436,0.0007,0.0000,17.5883,0.1390
262.0000,0.5436,0.0007,0.0000,17.5869,0.1383
262.0100,0.5436,0.0007,0.0000,17.5855,0.1381
262.0200,0.5436,0.0007,0.0000,17.5841,0.1377
262.0300,0.5436,0.0007,0.0000,17.5827,0.1379
262.0400,0.5436,0.0007,0.0000,17.5814,0.1371
262.0500,0.5436,0.0007,0.0000,17.5800,0.1366
262.0600,0.5436,0.0007,0.0000,17.5786,0.1366
262.0700,0.5436,0.0007,0.0000,17.5773,0.1364
262.0800,0.5436,0.0007,0.0000,17.5759,0.1362
262.0900,0.5436,0.0007,0.0000,17.5746,0.1354
262.1000,0.5436,0.0007,0.0000,17.5732,0.1356
262.1100,0.5436,0.0007,0.0000,17.5719,0.1352
262.1200,0.5436,0.0007,0.0000,17.5705,0.1350
262.1300,0.5436,0.0007,0.0000,17.5692,0.1345
262.1400,0.5436,0.0007,0.0000,17.5678,0.1343
262.1500,0.5436,0.0007,0.0000,17.5665,0.1343
262.1600,0.5436,0.0007,0.0000,17.5651,0.1339
262.1700,0.5436,0.0007,0.0000,17.5638,0.1331
262.1800,0.5436,0.0007,0.0000,17.5625,0.1331
262.1900,0.5436,0.0007,0.0000,17.5611,0.1329
262.2000,0.5436,0.0007,0.0000,17.5598,0.1326
262.2100,0.5436,0.0007,0.0000,17.5585,0.1320
262.2200,0.5436,0.0007,0.0000,17.5572,0.1318
262.2300,0.5436,0.0007,0.0000,17.5559,0.1318
262.2400,0.5436,0.0007,0.0000,17.5545,0.1314
262.2500,0.5436,0.0007,0.0000,17.5532,0.1307
262.2600,0.5436,0.0007,0.0000,17.5519,0.1307
262.2700,0.5436,0.0007,0.0000,17.5506,0.1307
262.2800,0.5436,0.0007,0.0000,17.5493,0.1303
262.2900,0.5436,0.0007,0.0000,17.5480,0.1299
262.3000,0.5436,0.0007,0.0000,17.5467,0.1295
262.3100,0.5436,0.0007,0.0000,17.5454,0.1295
262.3200,0.5436,0.0007,0.0000,17.5441,0.1293
262.3300,0.5436,0.0007,0.0000,17.5428,0.1293
262.3400,0.5436,0.0007,0.0000,17.5416,0.1295
262.3500,0.5436,0.0007,0.0000,17.5403,0.1289
262.3600,0.5436,0.0007,0.0000,17.5390,0.1286
262.3700,0.5436,0.0007,0.0000,17.5377,0.1282
262.3800,0.5436,0.0007,0.0000,17.5364,0.1282
262.3900,0.5436,0.0007,0.0000,17.5351,0.1280
262.4000,0.5436,0.0007,0.0000,17.5339,0.1274
262.4100,0.5436,0.0007,0.0000,17.5326,0.1270
262.4200,0.5436,0.0007,0.0000,17.5313,0.1272
262.4300,0.5436,0.0007,0.0000,17.5301,0.1266
262.4400,0.5436,0.0007,0.0000,17.5288,0.1268
262.4500,0.5436,0.0007,0.0000,17.5275,0.1266
262.4600,0.5436,0.0007,0.0000,17.5263,0.1259
262.4700,0.5436,0.0007,0.0000,17.5250,0.1257
262.4800,0.5436,0.0007,0.0000,17.5237,0.1257
262.4900,0.5436,0.0007,0.0000,17.5225,0.1253
262.5000,0.5436,0.0007,0.0000,17.5212,0.1249
262.5100,0.5436,0.0007,0.0000,17.5200,0.1245
262.5200,0.5436,0.0007,0.0000,17.5187,0.1245
262.5300,0.5436,0.0007,0.0000,17.5175,0.1242
262.5400,0.5436,0.0007,0.0000,17.5163,0.1236
262.5500,0.5436,0.0007,0.0000,17.5150,0.1234
262.5600,0.5436,0.0007,0.0000,17.5138,0.1232
262.5700,0.5436,0.0007,0.0000,17.5126,0.1228
262.5800,0.5436,0.0007,0.0000,17.5113,0.1230
262.5900,0.5436,0.0007,0.0000,17.5101,0.1223
262.6000,0.5436,0.0007,0.0000,17.5089,0.1223
262.6100,0.5436,0.0007,0.0000,17.5077,0.1219
262.6200,0.5436,0.0007,0.0000,17.5065,0.1219
262.6300,0.5436,0.0007,0.0000,17.5052,0.1215
262.6400,0.5436,0.0007,0.0000,17.5040,0.1209
262.6500,0.5436,0.0007,0.0000,17.5028,0.1209
262.6600,0.5436,0.0007,0.0000,17.5016,0.1207
262.6700,0.5436,0.0007,0.0000,17.5004,0.1205
262.6800,0.5436,0.0007,0.0000,17.4992,0.1204
262.6900,0.5436,0.0007,0.0000,17.4980,0.1200
262.7000,0.5436,0.0007,0.0000,17.4968,0.1196
262.7100,0.5436,0.0007,0.0000,17.4956,0.1196
262.7200,0.5436,0.0007,0.0000,17.4944,0.1194
262.7300,0.5436,0.0007,0.0000,17.4932,0.1190
262.7400,0.5436,0.0007,0.0000,17.4921,0.1184
262.7500,0.5436,0.0007,0.0000,17.4909,0.1184
262.7600,0.5436,0.0007,0.0000,17.4897,0.1183
262.7700,0.5436,0.0007,0.0000,17.4885,0.1183
262.7800,0.5436,0.0007,0.0000,17.4873,0.1175
262.7900,0.5436,0.0007,0.0000,17.4862,0.1171
262.8000,0.5436,0.0007,0.0000,17.4850,0.1173
262.8100,0.5436,0.0007,0.0000,17.4838,0.1171
262.8200,0.5436,0.0007,0.0000,17.4826,0.1169
262.8300,0.5436,0.0007,0.0000,17.4815,0.1163
262.8400,0.5436,0.0007,0.0000,17.4803,0.1160
262.8500,0.5436,0.0007,0.0000,17.4792,0.1160
262.8600,0.5436,0.0007,0.0000,17.4780,0.1158
262.8700,0.5436,0.0007,0.0000,17.4768,0.1158
262.8800,0.5436,0.0007,0.0000,17.4757,0.1148
262.8900,0.5436,0.0007,0.0000,17.4746,0.1148
262.9000,0.5436,0.0007,0.0000,17.4734,0.1148
262.9100,0.5436,0.0007,0.0000,17.4723,0.1146
262.9200,0.5436,0.0007,0.0000,17.4711,0.1143
262.9300,0.5436,0.0007,0.0000,17.4700,0.1137
262.9400,0.5436,0.0007,0.0000,17.4688,0.1135
262.9500,0.5436,0.0007,0.0000,17.4677,0.1137
262.9600,0.5436,0.0007,0.0000,17.4666,0.1135
262.9700,0.5436,0.0007,0.0000,17.4654,0.1125
262.9800,0.5436,0.0007,0.0000,17.4643,0.1123
262.9900,0.5436,0.0007,0.0000,17.4632,0.1123
263.0000,0.5436,0.0007,0.0000,17.4621,0.1123
263.0100,0.5436,0.0007,0.0000,17.4610,0.1120
263.0200,0.5436,0.0007,0.0000,17.4598,0.1116
263.0300,0.5436,0.0007,0.0000,17.4587,0.1110
263.0400,0.5436,0.0007,0.0000,17.4576,0.1112
263.0500,0.5436,0.0007,0.0000,17.4565,0.1110
263.0600,0.5436,0.0007,0.0000,17.4554,0.1110
263.0700,0.5436,0.0007,0.0000,17.4543,0.1102
263.0800,0.5436,0.0007,0.0000,17.4532,0.1101
263.0900,0.5436,0.0007,0.0000,17.4521,0.1099
263.1000,0.5436,0.0007,0.0000,17.4510,0.1099
263.1100,0.5436,0.0007,0.0000,17.4499,0.1097
263.1200,0.5436,0.0007,0.0000,17.4488,0.1095
263.1300,0.5436,0.0007,0.0000,17.4477,0.1091
263.1400,0.5436,0.0007,0.0000,17.4466,0.1089
263.1500,0.5436,0.0007,0.0000,17.4455,0.1085
263.1600,0.5436,0.0007,0.0000,17.4445,0.1085
263.1700,0.5436,0.0007,0.0000,17.4434,0.1083
263.1800,0.5436,0.0007,0.0000,17.4423,0.1080
263.1900,0.5436,0.0007,0.0000,17.4412,0.1076
263.2000,0.5436,0.0007,0.0000,17.4401,0.1074
263.2100,0.5436,0.0007,0.0000,17.4391,0.1074
263.2200,0.5436,0.0007,0.0000,17.4380,0.1070
263.2300,0.5436,0.0007,0.0000,17.4369,0.1066
263.2400,0.5436,0.0007,0.0000,17.4359,0.1066
263.2500,0.5436,0.0007,0.0000,17.4348,0.1062
263.2600,0.5436,0.0007,0.0000,17.4337,0.1062
263.2700,0.5436,0.0007,0.0000,17.4327,0.1059
263.2800,0.5436,0.0007,0.0000,17.4316,0.1059
263.2900,0.5436,0.0007,0.0000,17.4306,0.1053
263.3000,0.5436,0.0007,0.0000,17.4295,0.1053
263.3100,0.5436,0.0007,0.0000,17.4285,0.1049
263.3200,0.5436,0.0007,0.0000,17.4274,0.1049
263.3300,0.5436,0.0007,0.0000,17.4264,0.1045
263.3400,0.5436,0.0007,0.0000,17.4253,0.1045
263.3500,0.5436,0.0007,0.0000,17.4243,0.1040
263.3600,0.5436,0.0007,0.0000,17.4233,0.1038
263.3700,0.5436,0.0007,0.0000,17.4222,0.1038
263.3800,0.5436,0.0007,0.0000,17.4212,0.1036
263.3900,0.5436,0.0007,0.0000,17.4201,0.1032
263.4000,0.5436,0.0007,0.0000,17.4191,0.1030
263.4100,0.5436,0.0007,0.0000,17.4181,0.1028
263.4200,0.5436,0.0007,0.0000,17.4171,0.1026
263.4300,0.5436,0.0007,0.0000,17.4160,0.1024
263.4400,0.5436,0.0007,0.0000,17.4150,0.1024
263.4500,0.5436,0.0007,0.0000,17.4140,0.1020
263.4600,0.5436,0.0007,0.0000,17.4130,0.1013
263.4700,0.5436,0.0007,0.0000,17.4120,0.1013
263.4800,0.5436,0.0007,0.0000,17.4110,0.1013
263.4900,0.5436,0.0007,0.0000,17.4099,0.1013
263.5000,0.5436,0.0007,0.0000,17.4089,0.1011
263.5100,0.5436,0.0007,0.0000,17.4079,0.1005
263.5200,0.5436,0.0007,0.0000,17.4069,0.1001
263.5300,0.5436,0.0007,0.0000,17.4059,0.1001
263.5400,0.5436,0.0007,0.0000,17.4049,0.0999
263.5500,0.5436,0.0007,0.0000,17.4039,0.1001
263.5600,0.5436,0.0007,0.0000,17.4029,0.0994
263.5700,0.5436,0.0007,0.0000,17.4019,0.0990
263.5800,0.5436,0.0007,0.0000,17.4009,0.0990
263.5900,0.5436,0.0007,0.0000,17.4000,0.0988
263.6000,0.5436,0.0007,0.0000,17.3990,0.0988
263.6100,0.5436,0.0007,0.0000,17.3980,0.0988
263.6200,0.5436,0.0007,0.0000,17.3970,0.0982
263.6300,0.5436,0.0007,0.0000,17.3960,0.0980
263.6400,0.5436,0.0007,0.0000,17.3950,0.0977
263.6500,0.5436,0.0007,0.0000,17.3941,0.0977
263.6600,0.5436,0.0007,0.0000,17.3931,0.0975
263.6700,0.5436,0.0007,0.0000,17.3921,0.0971
263.6800,0.5436,0.0007,0.0000,17.3912,0.0967
263.6900,0.5436,0.0007,0.0000,17.3902,0.0965
263.7000,0.5436,0.0007,0.0000,17.3892,0.0965
263.7100,0.5436,0.0007,0.0000,17.3883,0.0963
263.7200,0.5436,0.0007,0.0000,17.3873,0.0965
263.7300,0.5436,0.0007,0.0000,17.3863,0.0963
263.7400,0.5436,0.0007,0.0000,17.3854,0.0963
263.7500,0.5436,0.0007,0.0000,17.3844,0.0957
263.7600,0.5436,0.0007,0.0000,17.3835,0.0956
263.7700,0.5436,0.0007,0.0000,17.3825,0.0952
263.7800,0.5436,0.0007,0.0000,17.3816,0.0954
263.7900,0.5436,0.0007,0.0000,17.3806,0.0952
263.8000,0.5436,0.0007,0.0000,17.3797,0.0946
263.8100,0.5436,0.0007,0.0000,17.3787,0.0942
263.8200,0.5436,0.0007,0.0000,17.3778,0.0927
263.8300,0.5436,0.0007,0.0000,17.3769,0.0893
263.8400,0.5436,0.0007,0.0000,17.3760,0.0854
263.8500,0.5436,0.0007,0.0000,17.3752,0.0813
263.8600,0.5436,0.0007,0.0000,17.3745,0.0753
263.8700,0.5436,0.0007,0.0000,17.3738,0.0679
263.8800,0.5436,0.0007,0.0000,17.3731,0.0687
263.8900,0.5436,0.0007,0.0000,17.3724,0.0711
263.9000,0.5436,0.0007,0.0000,17.3717,0.0706
263.9100,0.5436,0.0007,0.0000,17.3710,0.0694
263.9200,0.5436,0.0007,0.0000,17.3703,0.0677
263.9300,0.5436,0.0007,0.0000,17.3697,0.0647
263.9400,0.5436,0.0007,0.0000,17.3689,0.0744
263.9500,0.5436,0.0007,0.0000,17.3681,0.0795
263.9600,0.5436,0.0007,0.0000,17.3673,0.0839
263.9700,0.5436,0.0007,0.0000,17.3664,0.0866
263.9800,0.5436,0.0007,0.0000,17.3656,0.0891
263.9900,0.5436,0.0007,0.0000,17.3646,0.0904
264.0000,0.5436,0.0007,0.0000,17.3637,0.0912
264.0100,0.5436,0.0007,0.0000,17.3628,0.0925
264.0200,0.5436,0.0007,0.0000,17.3619,0.0938
264.0300,0.5436,0.0007,0.0000,17.3609,0.0950
264.0400,0.5436,0.0007,0.0000,17.3599,0.0967
264.0500,0.5436,0.0007,0.0000,17.3589,0.1001
264.0600,0.5436,0.0007,0.0000,17.3580,0.0978
264.0700,0.5436,0.0007,0.0000,17.3570,0.0965
264.0800,0.5436,0.0007,0.0000,17.3560,0.0952
264.0900,0.5436,0.0007,0.0000,17.3551,0.0950
264.1000,0.5436,0.0007,0.0000,17.3541,0.0954
264.1100,0.5436,0.0007,0.0000,17.3532,0.0996
264.1200,0.5436,0.0007,0.0000,17.3522,0.0946
264.1300,0.5436,0.0007,0.0000,17.3513,0.0912
264.1400,0.5436,0.0007,0.0000,17.3504,0.0885
264.1500,0.5436,0.0007,0.0000,17.3496,0.0870
264.1600,0.5436,0.0007,0.0000,17.3487,0.0856
264.1700,0.5436,0.0007,0.0000,17.3478,0.0849
264.1800,0.5436,0.0007,0.0000,17.3470,0.0843
264.1900,0.5436,0.0007,0.0000,17.3462,0.0837
264.2000,0.5436,0.0007,0.0000,17.3453,0.0835
264.2100,0.5436,0.0007,0.0000,17.3445,0.0832
264.2200,0.5436,0.0007,0.0000,17.3437,0.0830
264.2300,0.5436,0.0007,0.0000,17.3428,0.0834
264.2400,0.5436,0.0007,0.0000,17.3420,0.0830
264.2500,0.5436,0.0007,0.0000,17.3412,0.0832
264.2600,0.5436,0.0007,0.0000,17.3403,0.0832
264.2700,0.5436,0.0007,0.0000,17.3395,0.0834
264.2800,0.5436,0.0007,0.0000,17.3387,0.0834
264.2900,0.5436,0.0007,0.0000,17.3378,0.0837
264.3000,0.5436,0.0007,0.0000,17.3370,0.0841
264.3100,0.5436,0.0007,0.0000,17.3362,0.0822
264.3200,0.5436,0.0007,0.0000,17.3355,0.0713
264.3300,0.5436,0.0007,0.0000,17.3348,0.0639
264.3400,0.5436,0.0007,0.0000,17.3342,0.0593
264.3500,0.5436,0.0007,0.0000,17.3336,0.0563
264.3600,0.5436,0.0007,0.0000,17.3331,0.0544
264.3700,0.5436,0.0007,0.0000,17.3326,0.0519
264.3800,0.5436,0.0007,0.0000,17.3320,0.0549
264.3900,0.5436,0.0007,0.0000,17.3314,0.0616
264.4000,0.5436,0.0007,0.0000,17.3307,0.0668
264.4100,0.5436,0.0007,0.0000,17.3300,0.0702
264.4200,0.5436,0.0007,0.0000,17.3293,0.0732
264.4300,0.5436,0.0007,0.0000,17.3285,0.0757
264.4400,0.5436,0.0007,0.0000,17.3278,0.0769
264.4500,0.5436,0.0007,0.0000,17.3270,0.0772
264.4600,0.5436,0.0007,0.0000,17.3262,0.0782
264.4700,0.5436,0.0007,0.0000,17.3254,0.0788
264.4800,0.5436,0.0007,0.0000,17.3246,0.0778
264.4900,0.5436,0.0007,0.0000,17.3238,0.0797
264.5000,0.5436,0.0007,0.0000,17.3230,0.0818
264.5100,0.5436,0.0007,0.0000,17.3222,0.0830
264.5200,0.5436,0.0007,0.0000,17.3214,0.0830
264.5300,0.5436,0.0007,0.0000,17.3206,0.0788
264.5400,0.5436,0.0007,0.0000,17.3198,0.0746
264.5500,0.5436,0.0007,0.0000,17.3191,0.0689
264.5600,0.5436,0.0007,0.0000,17.3185,0.0620
264.5700,0.5436,0.0007,0.0000,17.3180,0.0542
264.5800,0.5436,0.0007,0.0000,17.3175,0.0492
264.5900,0.5436,0.0007,0.0000,17.3170,0.0458
264.6000,0.5436,0.0007,0.0000,17.3166,0.0435
264.6100,0.5436,0.0007,0.0000,17.3162,0.0410
264.6200,0.5436,0.0007,0.0000,17.3158,0.0393
264.6300,0.5436,0.0007,0.0000,17.3154,0.0439
264.6400,0.5436,0.0007,0.0000,17.3149,0.0511
264.6500,0.5436,0.0007,0.0000,17.3143,0.0555
264.6600,0.5436,0.0007,0.0000,17.3137,0.0589
264.6700,0.5436,0.0007,0.0000,17.3131,0.0618
264.6800,0.5436,0.0007,0.0000,17.3125,0.0639
264.6900,0.5436,0.0007,0.0000,17.3118,0.0656
264.7000,0.5436,0.0007,0.0000,17.3111,0.0673
264.7100,0.5436,0.0007,0.0000,17.3105,0.0669
264.7200,0.5436,0.0007,0.0000,17.3098,0.0717
264.7300,0.5436,0.0007,0.0000,17.3090,0.0731
264.7400,0.5436,0.0007,0.0000,17.3083,0.0740
264.7500,0.5436,0.0007,0.0000,17.3075,0.0742
264.7600,0.5436,0.0007,0.0000,17.3068,0.0736
264.7700,0.5436,0.0007,0.0000,17.3061,0.0732
264.7800,0.5436,0.0007,0.0000,17.3054,0.0729
264.7900,0.5436,0.0007,0.0000,17.3046,0.0725
264.8000,0.5436,0.0007,0.0000,17.3039,0.0755
264.8100,0.5436,0.0007,0.0000,17.3032,0.0717
264.8200,0.5436,0.0007,0.0000,17.3025,0.0681
264.8300,0.5436,0.0007,0.0000,17.3018,0.0654
264.8400,0.5436,0.0007,0.0000,17.3012,0.0639
264.8500,0.5436,0.0007,0.0000,17.3006,0.0624
264.8600,0.5436,0.0007,0.0000,17.3000,0.0614
264.8700,0.5436,0.0007,0.0000,17.2993,0.0610
264.8800,0.5436,0.0007,0.0000,17.2987,0.0603
264.8900,0.5436,0.0007,0.0000,17.2981,0.0601
264.9000,0.5436,0.0007,0.0000,17.2975,0.0601
264.9100,0.5436,0.0007,0.0000,17.2969,0.0601
264.9200,0.5436,0.0007,0.0000,17.2963,0.0599
264.9300,0.5436,0.0007,0.0000,17.2957,0.0601
264.9400,0.5436,0.0007,0.0000,17.2951,0.0603
264.9500,0.5436,0.0007,0.0000,17.2945,0.0607
264.9600,0.5436,0.0007,0.0000,17.2939,0.0608
264.9700,0.5436,0.0007,0.0000,17.2933,0.0610
264.9800,0.5436,0.0007,0.0000,17.2927,0.0610
264.9900,0.5436,0.0007,0.0000,17.2921,0.0610
265.0000,0.5436,0.0007,0.0000,17.2915,0.0610
265.0100,0.5436,0.0007,0.0000,17.2909,0.0610
265.0200,0.5436,0.0007,0.0000,17.2903,0.0610
265.0300,0.5436,0.0007,0.0000,17.2896,0.0610
265.0400,0.5436,0.0007,0.0000,17.2890,0.0610
265.0500,0.5436,0.0007,0.0000,17.2884,0.0612
265.0600,0.5436,0.0007,0.0000,17.2878,0.0612
265.0700,0.5436,0.0007,0.0000,17.2872,0.0612
265.0800,0.5436,0.0007,0.0000,17.2866,0.0610
265.0900,0.5436,0.0007,0.0000,17.2860,0.0610
265.1000,0.5436,0.0007,0.0000,17.2854,0.0610
265.1100,0.5436,0.0007,0.0000,17.2848,0.0610
265.1200,0.5436,0.0007,0.0000,17.2841,0.0612
265.1300,0.5436,0.0007,0.0000,17.2835,0.0612
265.1400,0.5436,0.0007,0.0000,17.2829,0.0610
265.1500,0.5436,0.0007,0.0000,17.2823,0.0610
265.1600,0.5436,0.0007,0.0000,17.2817,0.0610
265.1700,0.5436,0.0007,0.0000,17.2811,0.0610
265.1800,0.5436,0.0007,0.0000,17.2805,0.0608
265.1900,0.5436,0.0007,0.0000,17.2799,0.0608
265.2000,0.5436,0.0007,0.0000,17.2793,0.0607
265.2100,0.5436,0.0007,0.0000,17.2787,0.0608
265.2200,0.5436,0.0007,0.0000,17.2781,0.0603
265.2300,0.5436,0.0007,0.0000,17.2774,0.0601
265.2400,0.5436,0.0007,0.0000,17.2768,0.0601
265.2500,0.5436,0.0007,0.0000,17.2763,0.0599
265.2600,0.5436,0.0007,0.0000,17.2757,0.0599
265.2700,0.5436,0.0007,0.0000,17.2751,0.0599
265.2800,0.5436,0.0007,0.0000,17.2745,0.0597
265.2900,0.5436,0.0007,0.0000,17.2739,0.0597
265.3000,0.5436,0.0007,0.0000,17.2733,0.0597
265.3100,0.5436,0.0007,0.0000,17.2727,0.0595
265.3200,0.5436,0.0007,0.0000,17.2721,0.0593
265.3300,0.5436,0.0007,0.0000,17.2715,0.0591
265.3400,0.5436,0.0007,0.0000,17.2709,0.0589
265.3500,0.5436,0.0007,0.0000,17.2703,0.0587
265.3600,0.5436,0.0007,0.0000,17.2697,0.0586
265.3700,0.5436,0.0007,0.0000,17.2691,0.0586
265.3800,0.5436,0.0007,0.0000,17.2685,0.0586
265.3900,0.5436,0.0007,0.0000,17.2680,0.0586
265.4000,0.5436,0.0007,0.0000,17.2674,0.0587
265.4100,0.5436,0.0007,0.0000,17.2668,0.0584
265.4200,0.5436,0.0007,0.0000,17.2662,0.0580
265.4300,0.5436,0.0007,0.0000,17.2656,0.0578
265.4400,0.5436,0.0007,0.0000,17.2651,0.0576
265.4500,0.5436,0.0007,0.0000,17.2645,0.0574
265.4600,0.5436,0.0007,0.0000,17.2639,0.0574
265.4700,0.5436,0.0007,0.0000,17.2633,0.0574
265.4800,0.5436,0.0007,0.0000,17.2628,0.0574
265.4900,0.5436,0.0007,0.0000,17.2622,0.0574
265.5000,0.5436,0.0007,0.0000,17.2616,0.0572
265.5100,0.5436,0.0007,0.0000,17.2610,0.0570
265.5200,0.5436,0.0007,0.0000,17.2605,0.0566
265.5300,0.5436,0.0007,0.0000,17.2599,0.0566
265.5400,0.5436,0.0007,0.0000,17.2593,0.0563
265.5500,0.5436,0.0007,0.0000,17.2588,0.0563
265.5600,0.5436,0.0007,0.0000,17.2582,0.0561
265.5700,0.5436,0.0007,0.0000,17.2577,0.0561
265.5800,0.5436,0.0007,0.0000,17.2571,0.0563
265.5900,0.5436,0.0007,0.0000,17.2565,0.0555
265.6000,0.5436,0.0007,0.0000,17.2560,0.0557
265.6100,0.5436,0.0007,0.0000,17.2554,0.0559
265.6200,0.5436,0.0007,0.0000,17.2549,0.0557
265.6300,0.5436,0.0007,0.0000,17.2543,0.0553
265.6400,0.5436,0.0007,0.0000,17.2538,0.0555
265.6500,0.5436,0.0007,0.0000,17.2532,0.0540
265.6600,0.5436,0.0007,0.0000,17.2527,0.0525
265.6700,0.5436,0.0007,0.0000,17.2522,0.0511
265.6800,0.5436,0.0007,0.0000,17.2517,0.0505
265.6900,0.5436,0.0007,0.0000,17.2512,0.0500
265.7000,0.5436,0.0007,0.0000,17.2507,0.0494
265.7100,0.5436,0.0007,0.0000,17.2502,0.0490
265.7200,0.5436,0.0007,0.0000,17.2497,0.0488
265.7300,0.5436,0.0007,0.0000,17.2492,0.0479
265.7400,0.5436,0.0007,0.0000,17.2488,0.0463
265.7500,0.5436,0.0007,0.0000,17.2483,0.0452
265.7600,0.5436,0.0007,0.0000,17.2479,0.0443
265.7700,0.5436,0.0007,0.0000,17.2474,0.0439
265.7800,0.5436,0.0007,0.0000,17.2470,0.0433
265.7900,0.5436,0.0007,0.0000,17.2466,0.0429
265.8000,0.5436,0.0007,0.0000,17.2461,0.0427
265.8100,0.5436,0.0007,0.0000,17.2457,0.0427
265.8200,0.5436,0.0007,0.0000,17.2453,0.0423
265.8300,0.5436,0.0007,0.0000,17.2449,0.0420
265.8400,0.5436,0.0007,0.0000,17.2444,0.0423
265.8500,0.5436,0.0007,0.0000,17.2440,0.0427
265.8600,0.5436,0.0007,0.0000,17.2436,0.0427
265.8700,0.5436,0.0007,0.0000,17.2432,0.0427
265.8800,0.5436,0.0007,0.0000,17.2427,0.0427
265.8900,0.5436,0.0007,0.0000,17.2423,0.0427
265.9000,0.5436,0.0007,0.0000,17.2419,0.0427
265.9100,0.5436,0.0007,0.0000,17.2415,0.0420
265.9200,0.5436,0.0007,0.0000,17.2410,0.0422
265.9300,0.5436,0.0007,0.0000,17.2406,0.0425
265.9400,0.5436,0.0007,0.0000,17.2402,0.0423
265.9500,0.5436,0.0007,0.0000,17.2398,0.0427
265.9600,0.5436,0.0007,0.0000,17.2393,0.0425
265.9700,0.5436,0.0007,0.0000,17.2389,0.0422
265.9800,0.5436,0.0007,0.0000,17.2385,0.0418
265.9900,0.5436,0.0007,0.0000,17.2381,0.0416
266.0000,0.5436,0.0007,0.0000,17.2377,0.0414
266.0100,0.5436,0.0007,0.0000,17.2373,0.0416
266.0200,0.5436,0.0007,0.0000,17.2368,0.0410
266.0300,0.5436,0.0007,0.0000,17.2364,0.0404
266.0400,0.5436,0.0007,0.0000,17.2360,0.0402
266.0500,0.5436,0.0007,0.0000,17.2356,0.0402
266.0600,0.5436,0.0007,0.0000,17.2352,0.0404
266.0700,0.5436,0.0007,0.0000,17.2348,0.0399
266.0800,0.5436,0.0007,0.0000,17.2344,0.0401
266.0900,0.5436,0.0007,0.0000,17.2340,0.0391
266.1000,0.5436,0.0007,0.0000,17.2336,0.0393
266.1100,0.5436,0.0007,0.0000,17.2333,0.0389
266.1200,0.5436,0.0007,0.0000,17.2329,0.0391
266.1300,0.5436,0.0007,0.0000,17.2325,0.0391
266.1400,0.5436,0.0007,0.0000,17.2321,0.0389
266.1500,0.5436,0.0007,0.0000,17.2317,0.0385
266.1600,0.5436,0.0007,0.0000,17.2313,0.0380
266.1700,0.5436,0.0007,0.0000,17.2309,0.0380
266.1800,0.5436,0.0007,0.0000,17.2306,0.0381
266.1900,0.5436,0.0007,0.0000,17.2302,0.0380
266.2000,0.5436,0.0007,0.0000,17.2298,0.0378
266.2100,0.5436,0.0007,0.0000,17.2294,0.0378
266.2200,0.5436,0.0007,0.0000,17.2290,0.0378
266.2300,0.5436,0.0007,0.0000,17.2287,0.0380
266.2400,0.5436,0.0007,0.0000,17.2281,0.0565
266.2500,0.5436,0.0007,0.0000,17.2267,0.1427
266.2600,0.5436,0.0007,0.0000,17.2248,0.1900
266.2700,0.5436,0.0007,0.0000,17.2232,0.1577
266.2800,0.5436,0.0007,0.0000,17.2224,0.0843
266.2900,0.5436,0.0007,0.0000,17.2219,0.0500
266.3000,0.5436,0.0007,0.0000,17.2216,0.0240
266.3100,0.5436,0.0007,0.0000,17.2216,0.0040
266.3200,0.5436,0.0007,0.0000,17.2217,-0.0118
266.3300,0.5436,0.0007,0.0000,17.2219,-0.0237
266.3400,0.5436,0.0007,0.0000,17.2223,-0.0328
266.3500,0.5436,0.0007,0.0000,17.2227,-0.0397
266.3600,0.5436,0.0007,0.0000,17.2231,-0.0444
266.3700,0.5436,0.0007,0.0000,17.2236,-0.0483
266.3800,0.5436,0.0007,0.0000,17.2241,-0.0505
266.3900,0.5436,0.0007,0.0000,17.2246,-0.0521
266.4000,0.5436,0.0007,0.0000,17.2251,-0.0525
266.4100,0.5436,0.0007,0.0000,17.2257,-0.0530
266.4200,0.5436,0.0007,0.0000,17.2258,-0.0151
266.4300,0.5436,0.0007,0.0000,17.2257,0.0092
266.4400,0.5436,0.0007,0.0000,17.2259,-0.0154
266.4500,0.5436,0.0007,0.0000,17.2265,-0.0566
266.4600,0.5436,0.0007,0.0000,17.2268,-0.0376
266.4700,0.5436,0.0007,0.0000,17.2270,-0.0181
266.4800,0.5436,0.0007,0.0000,17.2267,0.0359
266.4900,0.5436,0.0007,0.0000,17.2261,0.0572
266.5000,0.5436,0.0007,0.0000,17.2254,0.0660
266.5100,0.5436,0.0007,0.0000,17.2251,0.0357
266.5200,0.5436,0.0007,0.0000,17.2248,0.0267
266.5300,0.5436,0.0007,0.0000,17.2247,0.0116
266.5400,0.5436,0.0007,0.0000,17.2247,-0.0034
266.5500,0.5436,0.0007,0.0000,17.2249,-0.0164
266.5600,0.5436,0.0007,0.0000,17.2252,-0.0273
266.5700,0.5436,0.0007,0.0000,17.2255,-0.0320
266.5800,0.5436,0.0007,0.0000,17.2259,-0.0471
266.5900,0.5436,0.0007,0.0000,17.2265,-0.0589
266.6000,0.5436,0.0007,0.0000,17.2272,-0.0690
266.6100,0.5436,0.0007,0.0000,17.2280,-0.0769
266.6200,0.5436,0.0007,0.0000,17.2288,-0.0834
266.6300,0.5436,0.0007,0.0000,17.2297,-0.0883
266.6400,0.5436,0.0007,0.0000,17.2306,-0.0925
266.6500,0.5436,0.0007,0.0000,17.2314,-0.0763
266.6600,0.5436,0.0007,0.0000,17.2322,-0.0765
266.6700,0.5436,0.0007,0.0000,17.2331,-0.0917
266.6800,0.5436,0.0007,0.0000,17.2342,-0.1106
266.6900,0.5436,0.0007,0.0000,17.2353,-0.1089
266.7000,0.5436,0.0007,0.0000,17.2362,-0.0963
266.7100,0.5436,0.0007,0.0000,17.2372,-0.0919
266.7200,0.5436,0.0007,0.0000,17.2381,-0.0893
266.7300,0.5436,0.0007,0.0000,17.2389,-0.0879
266.7400,0.5436,0.0007,0.0000,17.2397,-0.0818
266.7500,0.5436,0.0007,0.0000,17.2405,-0.0767
266.7600,0.5436,0.0007,0.0000,17.2412,-0.0732
266.7700,0.5436,0.0007,0.0000,17.2420,-0.0799
266.7800,0.5436,0.0007,0.0000,17.2429,-0.0824
266.7900,0.5436,0.0007,0.0000,17.2437,-0.0883
266.8000,0.5436,0.0007,0.0000,17.2447,-0.0982
266.8100,0.5436,0.0007,0.0000,17.2458,-0.1060
266.8200,0.5436,0.0007,0.0000,17.2469,-0.1133
266.8300,0.5436,0.0007,0.0000,17.2481,-0.1190
266.8400,0.5436,0.0007,0.0000,17.2493,-0.1238
266.8500,0.5436,0.0007,0.0000,17.2506,-0.1242
266.8600,0.5436,0.0007,0.0000,17.2519,-0.1286
266.8700,0.5436,0.0007,0.0000,17.2532,-0.1347
266.8800,0.5436,0.0007,0.0000,17.2546,-0.1398
266.8900,0.5436,0.0007,0.0000,17.2560,-0.1408
266.9000,0.5436,0.0007,0.0000,17.2575,-0.1442
266.9100,0.5436,0.0007,0.0000,17.2590,-0.1501
266.9200,0.5436,0.0007,0.0000,17.2605,-0.1547
266.9300,0.5436,0.0007,0.0000,17.2620,-0.1532
266.9400,0.5436,0.0007,0.0000,17.2636,-0.1528
266.9500,0.5436,0.0007,0.0000,17.2652,-0.1595
266.9600,0.5436,0.0007,0.0000,17.2666,-0.1463
266.9700,0.5436,0.0007,0.0000,17.2681,-0.1436
266.9800,0.5436,0.0007,0.0000,17.2695,-0.1419
266.9900,0.5436,0.0007,0.0000,17.2709,-0.1411
267.0000,0.5436,0.0007,0.0000,17.2723,-0.1448
267.0100,0.5436,0.0007,0.0000,17.2738,-0.1421
267.0200,0.5436,0.0007,0.0000,17.2751,-0.1366
267.0300,0.5436,0.0007,0.0000,17.2764,-0.1286
267.0400,0.5436,0.0007,0.0000,17.2777,-0.1265
267.0500,0.5436,0.0007,0.0000,17.2789,-0.1253
267.0600,0.5436,0.0007,0.0000,17.2802,-0.1245
267.0700,0.5436,0.0007,0.0000,17.2814,-0.1186
267.0800,0.5436,0.0007,0.0000,17.2826,-0.1186
267.0900,0.5436,0.0007,0.0000,17.2837,-0.1198
267.1000,0.5436,0.0007,0.0000,17.2850,-0.1207
267.1100,0.5436,0.0007,0.0000,17.2862,-0.1225
267.1200,0.5436,0.0007,0.0000,17.2875,-0.1301
267.1300,0.5436,0.0007,0.0000,17.2888,-0.1339
267.1400,0.5436,0.0007,0.0000,17.2902,-0.1350
267.1500,0.5436,0.0007,0.0000,17.2915,-0.1354
267.1600,0.5436,0.0007,0.0000,17.2929,-0.1360
267.1700,0.5436,0.0007,0.0000,17.2943,-0.1379
267.1800,0.5436,0.0007,0.0000,17.2957,-0.1448
267.1900,0.5436,0.0007,0.0000,17.2972,-0.1455
267.2000,0.5436,0.0007,0.0000,17.2986,-0.1451
267.2100,0.5436,0.0007,0.0000,17.3001,-0.1446
267.2200,0.5436,0.0007,0.0000,17.3015,-0.1434
267.2300,0.5436,0.0007,0.0000,17.3029,-0.1427
267.2400,0.5436,0.0007,0.0000,17.3044,-0.1417
267.2500,0.5436,0.0007,0.0000,17.3058,-0.1404
267.2600,0.5436,0.0007,0.0000,17.3072,-0.1392
267.2700,0.5436,0.0007,0.0000,17.3085,-0.1383
267.2800,0.5436,0.0007,0.0000,17.3099,-0.1371
267.2900,0.5436,0.0007,0.0000,17.3113,-0.1354
267.3000,0.5436,0.0007,0.0000,17.3126,-0.1345
267.3100,0.5436,0.0007,0.0000,17.3139,-0.1337
267.3200,0.5436,0.0007,0.0000,17.3153,-0.1324
267.3300,0.5436,0.0007,0.0000,17.3166,-0.1318
267.3400,0.5436,0.0007,0.0000,17.3179,-0.1308
267.3500,0.5436,0.0007,0.0000,17.3192,-0.1305
267.3600,0.5436,0.0007,0.0000,17.3204,-0.1236
267.3700,0.5436,0.0007,0.0000,17.3215,-0.1097
267.3800,0.5436,0.0007,0.0000,17.3228,-0.1244
267.3900,0.5436,0.0007,0.0000,17.3241,-0.1358
267.4000,0.5436,0.0007,0.0000,17.3256,-0.1448
267.4100,0.5436,0.0007,0.0000,17.3271,-0.1522
267.4200,0.5436,0.0007,0.0000,17.3287,-0.1575
267.4300,0.5436,0.0007,0.0000,17.3303,-0.1619
267.4400,0.5436,0.0007,0.0000,17.3319,-0.1648
267.4500,0.5436,0.0007,0.0000,17.3336,-0.1675
267.4600,0.5436,0.0007,0.0000,17.3353,-0.1688
267.4700,0.5436,0.0007,0.0000,17.3370,-0.1707
267.4800,0.5436,0.0007,0.0000,17.3387,-0.1709
267.4900,0.5436,0.0007,0.0000,17.3404,-0.1709
267.5000,0.5436,0.0007,0.0000,17.3421,-0.1711
267.5100,0.5436,0.0007,0.0000,17.3439,-0.1709
267.5200,0.5436,0.0007,0.0000,17.3456,-0.1703
267.5300,0.5436,0.0007,0.0000,17.3473,-0.1701
267.5400,0.5436,0.0007,0.0000,17.3487,-0.1453
267.5500,0.5436,0.0007,0.0000,17.3501,-0.1400
267.5600,0.5436,0.0007,0.0000,17.3515,-0.1411
267.5700,0.5436,0.0007,0.0000,17.3529,-0.1425
267.5800,0.5436,0.0007,0.0000,17.3544,-0.1446
267.5900,0.5436,0.0007,0.0000,17.3559,-0.1469
267.6000,0.5436,0.0007,0.0000,17.3574,-0.1492
267.6100,0.5436,0.0007,0.0000,17.3589,-0.1511
267.6200,0.5436,0.0007,0.0000,17.3604,-0.1532
267.6300,0.5436,0.0007,0.0000,17.3619,-0.1553
267.6400,0.5436,0.0007,0.0000,17.3635,-0.1574
267.6500,0.5436,0.0007,0.0000,17.3651,-0.1587
267.6600,0.5436,0.0007,0.0000,17.3667,-0.1608
267.6700,0.5436,0.0007,0.0000,17.3683,-0.1623
267.6800,0.5436,0.0007,0.0000,17.3700,-0.1635
267.6900,0.5436,0.0007,0.0000,17.3716,-0.1644
267.7000,0.5436,0.0007,0.0000,17.3733,-0.1659
267.7100,0.5436,0.0007,0.0000,17.3749,-0.1665
267.7200,0.5436,0.0007,0.0000,17.3766,-0.1671
267.7300,0.5436,0.0007,0.0000,17.3783,-0.1680
267.7400,0.5436,0.0007,0.0000,17.3800,-0.1682
267.7500,0.5436,0.0007,0.0000,17.3817,-0.1688
267.7600,0.5436,0.0007,0.0000,17.3834,-0.1690
267.7700,0.5436,0.0007,0.0000,17.3850,-0.1696
267.7800,0.5436,0.0007,0.0000,17.3867,-0.1694
267.7900,0.5436,0.0007,0.0000,17.3884,-0.1696
267.8000,0.5436,0.0007,0.0000,17.3901,-0.1698
267.8100,0.5436,0.0007,0.0000,17.3918,-0.1694
267.8200,0.5436,0.0007,0.0000,17.3935,-0.1694
267.8300,0.5436,0.0007,0.0000,17.3952,-0.1696
267.8400,0.5436,0.0007,0.0000,17.3969,-0.1692
267.8500,0.5436,0.0007,0.0000,17.3986,-0.1690
267.8600,0.5436,0.0007,0.0000,17.4003,-0.1686
267.8700,0.5436,0.0007,0.0000,17.4020,-0.1682
267.8800,0.5436,0.0007,0.0000,17.4037,-0.1684
267.8900,0.5436,0.0007,0.0000,17.4053,-0.1678
267.9000,0.5436,0.0007,0.0000,17.4070,-0.1678
267.9100,0.5436,0.0007,0.0000,17.4087,-0.1673
267.9200,0.5436,0.0007,0.0000,17.4103,-0.1667
267.9300,0.5436,0.0007,0.0000,17.4120,-0.1667
267.9400,0.5436,0.0007,0.0000,17.4137,-0.1665
267.9500,0.5436,0.0007,0.0000,17.4153,-0.1663
267.9600,0.5436,0.0007,0.0000,17.4170,-0.1657
267.9700,0.5436,0.0007,0.0000,17.4187,-0.1650
267.9800,0.5436,0.0007,0.0000,17.4203,-0.1650
267.9900,0.5436,0.0007,0.0000,17.4219,-0.1644
268.0000,0.5436,0.0007,0.0000,17.4236,-0.1638
268.0100,0.5436,0.0007,0.0000,17.4252,-0.1638
268.0200,0.5436,0.0007,0.0000,17.4269,-0.1640
268.0300,0.5436,0.0007,0.0000,17.4285,-0.1629
268.0400,0.5436,0.0007,0.0000,17.4301,-0.1619
268.0500,0.5436,0.0007,0.0000,17.4317,-0.1621
268.0600,0.5436,0.0007,0.0000,17.4333,-0.1617
268.0700,0.5436,0.0007,0.0000,17.4350,-0.1616
268.0800,0.5436,0.0007,0.0000,17.4366,-0.1616
268.0900,0.5436,0.0007,0.0000,17.4382,-0.1604
268.1000,0.5217,-0.0212,0.0000,17.4398,-0.1602
268.1100,0.5217,-0.0212,0.0000,17.4413,-0.1549
268.1200,0.5217,-0.0212,0.0000,17.4427,-0.1352
268.1300,0.5217,-0.0212,0.0000,17.4438,-0.1156
268.1400,0.5217,-0.0212,0.0000,17.4448,-0.0965
268.1500,0.5217,-0.0212,0.0000,17.4456,-0.0790
268.1600,0.5217,-0.0212,0.0000,17.4462,-0.0631
268.1700,0.5217,-0.0212,0.0000,17.4467,-0.0481
268.1800,0.5217,-0.0212,0.0000,17.4471,-0.0341
268.1900,0.5217,-0.0212,0.0000,17.4473,-0.0221
268.2000,0.5217,-0.0212,0.0000,17.4474,-0.0101
268.2100,0.5217,-0.0212,0.0000,17.4474,0.0006
268.2200,0.5217,-0.0212,0.0000,17.4473,0.0107
268.2300,0.5217,-0.0212,0.0000,17.4471,0.0196
268.2400,0.5217,-0.0212,0.0000,17.4468,0.0280
268.2500,0.5217,-0.0212,0.0000,17.4464,0.0362
268.2600,0.5217,-0.0212,0.0000,17.4460,0.0425
268.2700,0.5217,-0.0212,0.0000,17.4455,0.0494
268.2800,0.5217,-0.0212,0.0000,17.4450,0.0553
268.2900,0.5217,-0.0212,0.0000,17.4443,0.0618
268.3000,0.5217,-0.0212,0.0000,17.4437,0.0668
268.3100,0.5217,-0.0212,0.0000,17.4429,0.0719
268.3200,0.5217,-0.0212,0.0000,17.4422,0.0761
268.3300,0.5217,-0.0212,0.0000,17.4414,0.0801
268.3400,0.5217,-0.0212,0.0000,17.4405,0.0841
268.3500,0.5217,-0.0212,0.0000,17.4397,0.0875
268.3600,0.5217,-0.0212,0.0000,17.4388,0.0910
268.3700,0.5217,-0.0212,0.0000,17.4378,0.0942
268.3800,0.5217,-0.0212,0.0000,17.4368,0.0969
268.3900,0.5217,-0.0212,0.0000,17.4359,0.0994
268.4000,0.5217,-0.0212,0.0000,17.4348,0.1011
268.4100,0.5217,-0.0212,0.0000,17.4338,0.1034
268.4200,0.5217,-0.0212,0.0000,17.4328,0.1051
268.4300,0.5217,-0.0212,0.0000,17.4317,0.1070
268.4400,0.5217,-0.0212,0.0000,17.4306,0.1085
268.4500,0.5217,-0.0212,0.0000,17.4295,0.1101
268.4600,0.5217,-0.0212,0.0000,17.4284,0.1118
268.4700,0.5217,-0.0212,0.0000,17.4273,0.1131
268.4800,0.5217,-0.0212,0.0000,17.4261,0.1139
268.4900,0.5217,-0.0212,0.0000,17.4250,0.1146
268.5000,0.5217,-0.0212,0.0000,17.4238,0.1156
268.5100,0.5217,-0.0212,0.0000,17.4226,0.1165
268.5200,0.5217,-0.0212,0.0000,17.4215,0.1169
268.5300,0.5217,-0.0212,0.0000,17.4203,0.1175
268.5400,0.5217,-0.0212,0.0000,17.4191,0.1183
268.5500,0.5217,-0.0212,0.0000,17.4179,0.1192
268.5600,0.5217,-0.0212,0.0000,17.4167,0.1200
268.5700,0.5217,-0.0212,0.0000,17.4155,0.1198
268.5800,0.5217,-0.0212,0.0000,17.4143,0.1202
268.5900,0.5217,-0.0212,0.0000,17.4131,0.1205
268.6000,0.5217,-0.0212,0.0000,17.4119,0.1209
268.6100,0.5217,-0.0212,0.0000,17.4107,0.1209
268.6200,0.5217,-0.0212,0.0000,17.4095,0.1211
268.6300,0.5217,-0.0212,0.0000,17.4083,0.1213
268.6400,0.5217,-0.0212,0.0000,17.4071,0.1215
268.6500,0.5217,-0.0212,0.0000,17.4058,0.1215
268.6600,0.5217,-0.0212,0.0000,17.4046,0.1221
268.6700,0.5217,-0.0212,0.0000,17.4034,0.1221
268.6800,0.5217,-0.0212,0.0000,17.4022,0.1219
268.6900,0.5217,-0.0212,0.0000,17.4010,0.1221
268.7000,0.5217,-0.0212,0.0000,17.3997,0.1219
268.7100,0.5217,-0.0212,0.0000,17.3985,0.1219
268.7200,0.5217,-0.0212,0.0000,17.3973,0.1215
268.7300,0.5217,-0.0212,0.0000,17.3961,0.1211
268.7400,0.5217,-0.0212,0.0000,17.3949,0.1215
268.7500,0.5217,-0.0212,0.0000,17.3937,0.1217
268.7600,0.5217,-0.0212,0.0000,17.3925,0.1215
268.7700,0.5217,-0.0212,0.0000,17.3912,0.1213
268.7800,0.5217,-0.0212,0.0000,17.3900,0.1213
268.7900,0.5217,-0.0212,0.0000,17.3888,0.1209
268.8000,0.5217,-0.0212,0.0000,17.3876,0.1211
268.8100,0.5217,-0.0212,0.0000,17.3864,0.1204
268.8200,0.5217,-0.0212,0.0000,17.3852,0.1202
268.8300,0.5217,-0.0212,0.0000,17.3840,0.1200
268.8400,0.5217,-0.0212,0.0000,17.3828,0.1204
268.8500,0.5217,-0.0212,0.0000,17.3816,0.1202
268.8600,0.5217,-0.0212,0.0000,17.3804,0.1200
268.8700,0.5217,-0.0212,0.0000,17.3792,0.1196
268.8800,0.5217,-0.0212,0.0000,17.3780,0.1194
268.8900,0.5217,-0.0212,0.0000,17.3768,0.1190
268.9000,0.5217,-0.0212,0.0000,17.3756,0.1184
268.9100,0.5217,-0.0212,0.0000,17.3745,0.1183
268.9200,0.5217,-0.0212,0.0000,17.3733,0.1183
268.9300,0.5217,-0.0212,0.0000,17.3721,0.1181
268.9400,0.5217,-0.0212,0.0000,17.3709,0.1184
268.9500,0.5217,-0.0212,0.0000,17.3697,0.1179
268.9600,0.5217,-0.0212,0.0000,17.3685,0.1179
268.9700,0.5217,-0.0212,0.0000,17.3674,0.1171
268.9800,0.5217,-0.0212,0.0000,17.3662,0.1171
268.9900,0.5217,-0.0212,0.0000,17.3650,0.1169
269.0000,0.5217,-0.0212,0.0000,17.3639,0.1163
269.0100,0.5217,-0.0212,0.0000,17.3627,0.1163
269.0200,0.5217,-0.0212,0.0000,17.3615,0.1162
269.0300,0.5217,-0.0212,0.0000,17.3604,0.1158
269.0400,0.5217,-0.0212,0.0000,17.3592,0.1160
269.0500,0.5217,-0.0212,0.0000,17.3581,0.1158
269.0600,0.5217,-0.0212,0.0000,17.3569,0.1148
269.0700,0.5217,-0.0212,0.0000,17.3558,0.1146
269.0800,0.5217,-0.0212,0.0000,17.3546,0.1146
269.0900,0.5217,-0.0212,0.0000,17.3535,0.1144
269.1000,0.5217,-0.0212,0.0000,17.3523,0.1143
269.1100,0.5217,-0.0212,0.0000,17.3512,0.1137
269.1200,0.5217,-0.0212,0.0000,17.3501,0.1135
269.1300,0.5217,-0.0212,0.0000,17.3489,0.1135
269.1400,0.5217,-0.0212,0.0000,17.3478,0.1131
269.1500,0.5217,-0.0212,0.0000,17.3467,0.1131
269.1600,0.5217,-0.0212,0.0000,17.3456,0.1127
269.1700,0.5217,-0.0212,0.0000,17.3444,0.1127
269.1800,0.5217,-0.0212,0.0000,17.3433,0.1123
269.1900,0.5217,-0.0212,0.0000,17.3422,0.1122
269.2000,0.5217,-0.0212,0.0000,17.3411,0.1116
269.2100,0.5217,-0.0212,0.0000,17.3399,0.1118
269.2200,0.5217,-0.0212,0.0000,17.3388,0.1112
269.2300,0.5217,-0.0212,0.0000,17.3377,0.1108
269.2400,0.5217,-0.0212,0.0000,17.3366,0.1110
269.2500,0.5217,-0.0212,0.0000,17.3355,0.1108
269.2600,0.5217,-0.0212,0.0000,17.3344,0.1104
269.2700,0.5217,-0.0212,0.0000,17.3333,0.1099
269.2800,0.5217,-0.0212,0.0000,17.3322,0.1095
269.2900,0.5217,-0.0212,0.0000,17.3311,0.1091
269.3000,0.5217,-0.0212,0.0000,17.3300,0.1091
269.3100,0.5217,-0.0212,0.0000,17.3289,0.1087
269.3200,0.5217,-0.0212,0.0000,17.3279,0.1087
269.3300,0.5217,-0.0212,0.0000,17.3268,0.1089
269.3400,0.5217,-0.0212,0.0000,17.3257,0.1087
269.3500,0.5217,-0.0212,0.0000,17.3246,0.1083
269.3600,0.5217,-0.0212,0.0000,17.3235,0.1081
269.3700,0.5217,-0.0212,0.0000,17.3224,0.1080
269.3800,0.5217,-0.0212,0.0000,17.3214,0.1078
269.3900,0.5217,-0.0212,0.0000,17.3203,0.1076
269.4000,0.5217,-0.0212,0.0000,17.3192,0.1070
269.4100,0.5217,-0.0212,0.0000,17.3181,0.1068
269.4200,0.5217,-0.0212,0.0000,17.3171,0.1062
269.4300,0.5217,-0.0212,0.0000,17.3160,0.1053
269.4400,0.5217,-0.0212,0.0000,17.3150,0.1053
269.4500,0.5217,-0.0212,0.0000,17.3139,0.1041
269.4600,0.5217,-0.0212,0.0000,17.3129,0.1038
269.4700,0.5217,-0.0212,0.0000,17.3119,0.1034
269.4800,0.5217,-0.0212,0.0000,17.3108,0.1034
269.4900,0.5217,-0.0212,0.0000,17.3098,0.1036
269.5000,0.5217,-0.0212,0.0000,17.3088,0.1034
269.5100,0.5217,-0.0212,0.0000,17.3077,0.1030
269.5200,0.5217,-0.0212,0.0000,17.3067,0.1028
269.5300,0.5217,-0.0212,0.0000,17.3057,0.1026
269.5400,0.5217,-0.0212,0.0000,17.3046,0.1024
269.5500,0.5217,-0.0212,0.0000,17.3036,0.1024
269.5600,0.5217,-0.0212,0.0000,17.3026,0.1024
269.5700,0.5217,-0.0212,0.0000,17.3016,0.1022
269.5800,0.5217,-0.0212,0.0000,17.3006,0.1020
269.5900,0.5217,-0.0212,0.0000,17.2995,0.1019
269.6000,0.5217,-0.0212,0.0000,17.2985,0.1019
269.6100,0.5217,-0.0212,0.0000,17.2975,0.1013
269.6200,0.5217,-0.0212,0.0000,17.2965,0.1011
269.6300,0.5217,-0.0212,0.0000,17.2955,0.1009
269.6400,0.5217,-0.0212,0.0000,17.2945,0.1005
269.6500,0.5217,-0.0212,0.0000,17.2935,0.0998
269.6600,0.5217,-0.0212,0.0000,17.2925,0.0996
269.6700,0.5217,-0.0212,0.0000,17.2915,0.0992
269.6800,0.5217,-0.0212,0.0000,17.2905,0.0992
269.6900,0.5217,-0.0212,0.0000,17.2895,0.0994
269.7000,0.5217,-0.0212,0.0000,17.2885,0.0990
269.7100,0.5217,-0.0212,0.0000,17.2875,0.0990
269.7200,0.5217,-0.0212,0.0000,17.2865,0.0988
269.7300,0.5217,-0.0212,0.0000,17.2856,0.0984
269.7400,0.5217,-0.0212,0.0000,17.2846,0.0982
269.7500,0.5217,-0.0212,0.0000,17.2836,0.0980
269.7600,0.5217,-0.0212,0.0000,17.2826,0.0978
269.7700,0.5217,-0.0212,0.0000,17.2816,0.0977
269.7800,0.5217,-0.0212,0.0000,17.2807,0.0973
269.7900,0.5217,-0.0212,0.0000,17.2797,0.0971
269.8000,0.5217,-0.0212,0.0000,17.2787,0.0973
269.8100,0.5217,-0.0212,0.0000,17.2778,0.0967
269.8200,0.5217,-0.0212,0.0000,17.2768,0.0967
269.8300,0.5217,-0.0212,0.0000,17.2758,0.0965
269.8400,0.5217,-0.0212,0.0000,17.2749,0.0959
269.8500,0.5217,-0.0212,0.0000,17.2739,0.0956
269.8600,0.5217,-0.0212,0.0000,17.2730,0.0952
269.8700,0.5217,-0.0212,0.0000,17.2720,0.0950
269.8800,0.5217,-0.0212,0.0000,17.2711,0.0950
269.8900,0.5217,-0.0212,0.0000,17.2701,0.0948
269.9000,0.5217,-0.0212,0.0000,17.2692,0.0952
269.9100,0.5217,-0.0212,0.0000,17.2682,0.0948
269.9200,0.5217,-0.0212,0.0000,17.2673,0.0946
269.9300,0.5217,-0.0212,0.0000,17.2663,0.0944
269.9400,0.5217,-0.0212,0.0000,17.2654,0.0944
269.9500,0.5217,-0.0212,0.0000,17.2644,0.0938
269.9600,0.5217,-0.0212,0.0000,17.2635,0.0938
269.9700,0.5217,-0.0212,0.0000,17.2626,0.0938
269.9800,0.5217,-0.0212,0.0000,17.2616,0.0935
269.9900,0.5217,-0.0212,0.0000,17.2607,0.0931
270.0000,0.5217,-0.0212,0.0000,17.2598,0.0931
270.0100,0.5217,-0.0212,0.0000,17.2612,0.0931
270.0200,0.5217,-0.0212,0.0000,17.2489,0.0931
270.0300,0.5217,-0.0212,0.0000,17.2377,0.0931
270.0400,0.5217,-0.0212,0.0000,17.2274,0.0931
270.0500,0.5217,-0.0212,0.0000,17.2178,0.0931
270.0600,0.5217,-0.0212,0.0000,17.2088,0.0931
270.0700,0.5217,-0.0212,0.0000,17.2003,0.0931
270.0800,0.5217,-0.0212,0.0000,17.1923,0.0931
270.0900,0.5217,-0.0212,0.0000,17.1846,0.0931
270.1000,0.5217,-0.0212,0.0000,17.1773,0.0931
270.1100,0.5217,-0.0212,0.0000,17.1702,0.0931
270.1200,0.5217,-0.0212,0.0000,17.1633,0.0931
270.1300,0.5217,-0.0212,0.0000,17.1567,0.0931
270.1400,0.5217,-0.0212,0.0000,17.1502,0.0931
270.1500,0.5217,-0.0212,0.0000,17.1439,0.0931
270.1600,0.5217,-0.0212,0.0000,17.1376,0.0931
270.1700,0.5217,-0.0212,0.0000,17.1315,0.0931
270.1800,0.5217,-0.0212,0.0000,17.1255,0.0931
270.1900,0.5217,-0.0212,0.0000,17.1196,0.0931
270.2000,0.5217,-0.0212,0.0000,17.1137,0.0931
270.2100,0.5217,-0.0212,0.0000,17.1079,0.0931
270.2200,0.5217,-0.0212,0.0000,17.1021,0.0931
270.2300,0.5217,-0.0212,0.0000,17.0964,0.0931
270.2400,0.5217,-0.0212,0.0000,17.0907,0.0931
270.2500,0.5217,-0.0212,0.0000,17.0851,0.0931
270.2600,0.5217,-0.0212,0.0000,17.0794,0.0931
270.2700,0.5217,-0.0212,0.0000,17.0739,0.0931
270.2800,0.5217,-0.0212,0.0000,17.0683,0.0931
270.2900,0.5217,-0.0212,0.0000,17.0627,0.0931
270.3000,0.5217,-0.0212,0.0000,17.0572,0.0931
270.3100,0.5217,-0.0212,0.0000,17.0517,0.0931
270.3200,0.5217,-0.0212,0.0000,17.0462,0.0931
270.3300,0.5217,-0.0212,0.0000,17.0407,0.0931
270.3400,0.5217,-0.0212,0.0000,17.0352,0.0931
270.3500,0.5217,-0.0212,0.0000,17.0298,0.0931
270.3600,0.5217,-0.0212,0.0000,17.0243,0.0931
270.3700,0.5217,-0.0212,0.0000,17.0192,0.0931
270.3800,0.5217,-0.0212,0.0000,17.0146,0.0931
270.3900,0.5217,-0.0212,0.0000,17.0101,0.0931
270.4000,0.5217,-0.0212,0.0000,17.0056,0.0931
270.4100,0.5217,-0.0212,0.0000,17.0012,0.0931
270.4200,0.5217,-0.0212,0.0000,16.9967,0.0931
270.4300,0.5217,-0.0212,0.0000,16.9923,0.0931
270.4400,0.5217,-0.0212,0.0000,16.9879,0.0931
270.4500,0.5217,-0.0212,0.0000,16.9835,0.0931
270.4600,0.5217,-0.0212,0.0000,16.9790,0.0931
270.4700,0.5217,-0.0212,0.0000,16.9746,0.0931
270.4800,0.5217,-0.0212,0.0000,16.9702,0.0931
270.4900,0.5217,-0.0212,0.0000,16.9657,0.0931
270.5000,0.5217,-0.0212,0.0000,16.9612,0.0931
270.5100,0.5217,-0.0212,0.0000,16.9567,0.0931
270.5200,0.5217,-0.0212,0.0000,16.9522,0.0931
270.5300,0.5217,-0.0212,0.0000,16.9476,0.0931
270.5400,0.5217,-0.0212,0.0000,16.9429,0.0931
270.5500,0.5217,-0.0212,0.0000,16.9386,0.0931
270.5600,0.5217,-0.0212,0.0000,16.9343,0.0931
270.5700,0.5217,-0.0212,0.0000,16.9299,0.0931
270.5800,0.5217,-0.0212,0.0000,16.9255,0.0931
270.5900,0.5217,-0.0212,0.0000,16.9210,0.0931
270.6000,0.5217,-0.0212,0.0000,16.9164,0.0931
270.6100,0.5217,-0.0212,0.0000,16.9119,0.0931
270.6200,0.5217,-0.0212,0.0000,16.9073,0.0931
270.6300,0.5217,-0.0212,0.0000,16.9028,0.0931
270.6400,0.5217,-0.0212,0.0000,16.8982,0.0931
270.6500,0.5217,-0.0212,0.0000,16.8937,0.0931
270.6600,0.5217,-0.0212,0.0000,16.8891,0.0931
270.6700,0.5217,-0.0212,0.0000,16.8846,0.0931
270.6800,0.5217,-0.0212,0.0000,16.8801,0.0931
270.6900,0.5217,-0.0212,0.0000,16.8756,0.0931
270.7000,0.5217,-0.0212,0.0000,16.8711,0.0931
270.7100,0.5217,-0.0212,0.0000,16.8666,0.0931
270.7200,0.5217,-0.0212,0.0000,16.8622,0.0931
270.7300,0.5217,-0.0212,0.0000,16.8577,0.0931
270.7400,0.5217,-0.0212,0.0000,16.8533,0.0931
270.7500,0.5217,-0.0212,0.0000,16.8489,0.0931
270.7600,0.5217,-0.0212,0.0000,16.8445,0.0931
270.7700,0.5217,-0.0212,0.0000,16.8401,0.0931
270.7800,0.5217,-0.0212,0.0000,16.8358,0.0931
270.7900,0.5217,-0.0212,0.0000,16.8315,0.0931
270.8000,0.5217,-0.0212,0.0000,16.8272,0.0931
270.8100,0.5217,-0.0212,0.0000,16.8229,0.0931
270.8200,0.5217,-0.0212,0.0000,16.8186,0.0931
270.8300,0.5217,-0.0212,0.0000,16.8143,0.0931
270.8400,0.5217,-0.0212,0.0000,16.8100,0.0931
270.8500,0.5217,-0.0212,0.0000,16.8058,0.0931
270.8600,0.5217,-0.0212,0.0000,16.8016,0.0931
270.8700,0.5217,-0.0212,0.0000,16.7973,0.0931
270.8800,0.5217,-0.0212,0.0000,16.7931,0.0931
270.8900,0.5217,-0.0212,0.0000,16.7889,0.0931
270.9000,0.5217,-0.0212,0.0000,16.7847,0.0931
270.9100,0.5217,-0.0212,0.0000,16.7805,0.0931
270.9200,0.5217,-0.0212,0.0000,16.7764,0.0931
270.9300,0.5217,-0.0212,0.0000,16.7722,0.0931
270.9400,0.5217,-0.0212,0.0000,16.7681,0.0931
270.9500,0.5217,-0.0212,0.0000,16.7639,0.0931
270.9600,0.5217,-0.0212,0.0000,16.7598,0.0931
270.9700,0.5217,-0.0212,0.0000,16.7556,0.0931
270.9800,0.5217,-0.0212,0.0000,16.7514,0.0931
270.9900,0.5217,-0.0212,0.0000,16.7472,0.0931
271.0000,0.5217,-0.0212,0.0000,16.7433,0.0931
271.0100,0.5217,-0.0212,0.0000,16.7394,0.0931
271.0200,0.5217,-0.0212,0.0000,16.7355,0.0931
271.0300,0.5217,-0.0212,0.0000,16.7316,0.0931
271.0400,0.5217,-0.0212,0.0000,16.7277,0.0931
271.0500,0.5217,-0.0212,0.0000,16.7239,0.0931
271.0600,0.5217,-0.0212,0.0000,16.7201,0.0931
271.0700,0.5217,-0.0212,0.0000,16.7162,0.0931
271.0800,0.5217,-0.0212,0.0000,16.7124,0.0931
271.0900,0.5217,-0.0212,0.0000,16.7086,0.0931
271.1000,0.5217,-0.0212,0.0000,16.7048,0.0931
271.1100,0.5217,-0.0212,0.0000,16.7010,0.0931
271.1200,0.5217,-0.0212,0.0000,16.6972,0.0931
271.1300,0.5217,-0.0212,0.0000,16.6934,0.0931
271.1400,0.5217,-0.0212,0.0000,16.6896,0.0931
271.1500,0.5217,-0.0212,0.0000,16.6859,0.0931
271.1600,0.5217,-0.0212,0.0000,16.6822,0.0931
271.1700,0.5217,-0.0212,0.0000,16.6784,0.0931
271.1800,0.5217,-0.0212,0.0000,16.6749,0.0931
271.1900,0.5217,-0.0212,0.0000,16.6713,0.0931
271.2000,0.5217,-0.0212,0.0000,16.6677,0.0931
271.2100,0.5217,-0.0212,0.0000,16.6642,0.0931
271.2200,0.5217,-0.0212,0.0000,16.6606,0.0931
271.2300,0.5217,-0.0212,0.0000,16.6570,0.0931
271.2400,0.5217,-0.0212,0.0000,16.6534,0.0931
271.2500,0.5217,-0.0212,0.0000,16.6499,0.0931
271.2600,0.5217,-0.0212,0.0000,16.6463,0.0931
271.2700,0.5217,-0.0212,0.0000,16.6427,0.0931
271.2800,0.5217,-0.0212,0.0000,16.6392,0.0931
