time_s,throttle,throttle_delta,brake,speed,accel_x
9.2300,0.2635,-0.0118,0.0000,5.5331,-0.0122
9.2400,0.2635,-0.0118,0.0000,5.5332,-0.0078
9.2500,0.2635,-0.0118,0.0000,5.5331,0.0028
9.2600,0.2635,-0.0118,0.0000,5.5330,0.0122
9.2700,0.2635,-0.0118,0.0000,5.5328,0.0206
9.2800,0.2635,-0.0118,0.0000,5.5325,0.0281
9.2900,0.2635,-0.0118,0.0000,5.5322,0.0350
9.3000,0.2635,-0.0118,0.0000,5.5318,0.0406
9.3100,0.2635,-0.0118,0.0000,5.5313,0.0460
9.3200,0.2635,-0.0118,0.0000,5.5308,0.0506
9.3300,0.2635,-0.0118,0.0000,5.5303,0.0547
9.3400,0.2635,-0.0118,0.0000,5.5297,0.0584
9.3500,0.2635,-0.0118,0.0000,5.5291,0.0616
9.3600,0.2635,-0.0118,0.0000,5.5284,0.0643
9.3700,0.2635,-0.0118,0.0000,5.5278,0.0669
9.3800,0.2635,-0.0118,0.0000,5.5271,0.0691
9.3900,0.2635,-0.0118,0.0000,5.5264,0.0710
9.4000,0.2635,-0.0118,0.0000,5.5256,0.0728
9.4100,0.2635,-0.0118,0.0000,5.5249,0.0741
9.4200,0.2635,-0.0118,0.0000,5.5241,0.0755
9.4300,0.2635,-0.0118,0.0000,5.5234,0.0766
9.4400,0.2635,-0.0118,0.0000,5.5226,0.0776
9.4500,0.2635,-0.0118,0.0000,5.5218,0.0784
9.4600,0.2635,-0.0118,0.0000,5.5210,0.0791
9.4700,0.2635,-0.0118,0.0000,5.5202,0.0798
9.4800,0.2635,-0.0118,0.0000,5.5194,0.0802
9.4900,0.2635,-0.0118,0.0000,5.5186,0.0805
9.5000,0.2635,-0.0118,0.0000,5.5178,0.0812
9.5100,0.2635,-0.0118,0.0000,5.5170,0.0812
9.5200,0.2635,-0.0118,0.0000,5.5162,0.0817
9.5300,0.2635,-0.0118,0.0000,5.5153,0.0818
9.5400,0.2635,-0.0118,0.0000,5.5145,0.0818
9.5500,0.2635,-0.0118,0.0000,5.5137,0.0818
9.5600,0.2635,-0.0118,0.0000,5.5129,0.0818
9.5700,0.2635,-0.0118,0.0000,5.5121,0.0818
9.5800,0.2635,-0.0118,0.0000,5.5113,0.0818
9.5900,0.2635,-0.0118,0.0000,5.5104,0.0818
9.6000,0.2635,-0.0118,0.0000,5.5096,0.0818
9.6100,0.2635,-0.0118,0.0000,5.5088,0.0818
9.6200,0.2635,-0.0118,0.0000,5.5080,0.0818
9.6300,0.2635,-0.0118,0.0000,5.5072,0.0817
9.6400,0.2635,-0.0118,0.0000,5.5064,0.0812
9.6500,0.2635,-0.0118,0.0000,5.5055,0.0812
9.6600,0.2635,-0.0118,0.0000,5.5047,0.0812
9.6700,0.2635,-0.0118,0.0000,5.5039,0.0810
9.6800,0.2635,-0.0118,0.0000,5.5031,0.0805
9.6900,0.2635,-0.0118,0.0000,5.5023,0.0806
9.7000,0.2635,-0.0118,0.0000,5.5015,0.0804
9.7100,0.2635,-0.0118,0.0000,5.5007,0.0800
9.7200,0.2635,-0.0118,0.0000,5.4999,0.0800
9.7300,0.2635,-0.0118,0.0000,5.4991,0.0798
9.7400,0.2635,-0.0118,0.0000,5.4983,0.0793
9.7500,0.2635,-0.0118,0.0000,5.4975,0.0793
9.7600,0.2635,-0.0118,0.0000,5.4967,0.0790
9.7700,0.2635,-0.0118,0.0000,5.4959,0.0787
9.7800,0.2635,-0.0118,0.0000,5.4952,0.0787
9.7900,0.2635,-0.0118,0.0000,5.4944,0.0782
9.8000,0.2635,-0.0118,0.0000,5.4936,0.0781
9.8100,0.2635,-0.0118,0.0000,5.4928,0.0780
9.8200,0.2635,-0.0118,0.0000,5.4920,0.0775
9.8300,0.2635,-0.0118,0.0000,5.4913,0.0774
9.8400,0.2635,-0.0118,0.0000,5.4905,0.0771
9.8500,0.2635,-0.0118,0.0000,5.4897,0.0769
9.8600,0.2635,-0.0118,0.0000,5.4890,0.0767
9.8700,0.2635,-0.0118,0.0000,5.4882,0.0763
9.8800,0.2635,-0.0118,0.0000,5.4874,0.0763
9.8900,0.2635,-0.0118,0.0000,5.4867,0.0758
9.9000,0.2635,-0.0118,0.0000,5.4859,0.0757
9.9100,0.2635,-0.0118,0.0000,5.4852,0.0756
9.9200,0.2635,-0.0118,0.0000,5.4844,0.0751
9.9300,0.2635,-0.0118,0.0000,5.4837,0.0751
9.9400,0.2635,-0.0118,0.0000,5.4829,0.0746
9.9500,0.2635,-0.0118,0.0000,5.4822,0.0744
9.9600,0.2635,-0.0118,0.0000,5.4814,0.0744
9.9700,0.2635,-0.0118,0.0000,5.4807,0.0738
9.9800,0.2635,-0.0118,0.0000,5.4800,0.0739
9.9900,0.2635,-0.0118,0.0000,5.4792,0.0734
10.0000,0.2635,-0.0118,0.0000,5.4785,0.0732
10.0100,0.2635,-0.0118,0.0000,5.4778,0.0732
10.0200,0.2635,-0.0118,0.0000,5.4770,0.0726
10.0300,0.2635,-0.0118,0.0000,5.4763,0.0726
10.0400,0.2635,-0.0118,0.0000,5.4756,0.0724
10.0500,0.2635,-0.0118,0.0000,5.4749,0.0721
10.0600,0.2635,-0.0118,0.0000,5.4741,0.0720
10.0700,0.2635,-0.0118,0.0000,5.4734,0.0715
10.0800,0.2635,-0.0118,0.0000,5.4727,0.0714
10.0900,0.2635,-0.0118,0.0000,5.4720,0.0712
10.1000,0.2635,-0.0118,0.0000,5.4713,0.0708
10.1100,0.2635,-0.0118,0.0000,5.4706,0.0708
10.1200,0.2635,-0.0118,0.0000,5.4699,0.0704
10.1300,0.2635,-0.0118,0.0000,5.4692,0.0702
10.1400,0.2635,-0.0118,0.0000,5.4685,0.0702
10.1500,0.2635,-0.0118,0.0000,5.4678,0.0696
10.1600,0.2635,-0.0118,0.0000,5.4671,0.0696
10.1700,0.2635,-0.0118,0.0000,5.4664,0.0694
10.1800,0.2635,-0.0118,0.0000,5.4657,0.0690
10.1900,0.2635,-0.0118,0.0000,5.4650,0.0690
10.2000,0.2635,-0.0118,0.0000,5.4643,0.0686
10.2100,0.2635,-0.0118,0.0000,5.4636,0.0683
10.2200,0.2635,-0.0118,0.0000,5.4630,0.0684
10.2300,0.2635,-0.0118,0.0000,5.4623,0.0678
10.2400,0.2635,-0.0118,0.0000,5.4616,0.0678
10.2500,0.2635,-0.0118,0.0000,5.4609,0.0676
10.2600,0.2635,-0.0118,0.0000,5.4602,0.0671
10.2700,0.2635,-0.0118,0.0000,5.4596,0.0671
10.2800,0.2635,-0.0118,0.0000,5.4589,0.0670
10.2900,0.2635,-0.0118,0.0000,5.4582,0.0665
10.3000,0.2635,-0.0118,0.0000,5.4576,0.0665
10.3100,0.2635,-0.0118,0.0000,5.4569,0.0662
10.3200,0.2635,-0.0118,0.0000,5.4563,0.0659
10.3300,0.2635,-0.0118,0.0000,5.4556,0.0659
10.3400,0.2635,-0.0118,0.0000,5.4549,0.0655
10.3500,0.2635,-0.0118,0.0000,5.4543,0.0653
10.3600,0.2635,-0.0118,0.0000,5.4536,0.0653
10.3700,0.2635,-0.0118,0.0000,5.4530,0.0648
10.3800,0.2635,-0.0118,0.0000,5.4523,0.0647
10.3900,0.2635,-0.0118,0.0000,5.4517,0.0647
10.4000,0.2635,-0.0118,0.0000,5.4511,0.0641
10.4100,0.2635,-0.0118,0.0000,5.4504,0.0641
10.4200,0.2635,-0.0118,0.0000,5.4498,0.0640
10.4300,0.2635,-0.0118,0.0000,5.4491,0.0636
10.4400,0.2635,-0.0118,0.0000,5.4485,0.0635
10.4500,0.2635,-0.0118,0.0000,5.4479,0.0634
10.4600,0.2635,-0.0118,0.0000,5.4472,0.0629
10.4700,0.2635,-0.0118,0.0000,5.4466,0.0629
10.4800,0.2635,-0.0118,0.0000,5.4460,0.0628
10.4900,0.2635,-0.0118,0.0000,5.4454,0.0623
10.5000,0.2635,-0.0118,0.0000,5.4447,0.0622
10.5100,0.2635,-0.0118,0.0000,5.4441,0.0623
10.5200,0.2635,-0.0118,0.0000,5.4435,0.0617
10.5300,0.2635,-0.0118,0.0000,5.4429,0.0617
10.5400,0.2635,-0.0118,0.0000,5.4423,0.0615
10.5500,0.2635,-0.0118,0.0000,5.4417,0.0610
10.5600,0.2635,-0.0118,0.0000,5.4410,0.0610
10.5700,0.2635,-0.0118,0.0000,5.4404,0.0610
10.5800,0.2635,-0.0118,0.0000,5.4398,0.0605
10.5900,0.2635,-0.0118,0.0000,5.4392,0.0605
10.6000,0.2635,-0.0118,0.0000,5.4386,0.0604
10.6100,0.2635,-0.0118,0.0000,5.4380,0.0598
10.6200,0.2635,-0.0118,0.0000,5.4374,0.0598
10.6300,0.2635,-0.0118,0.0000,5.4368,0.0598
10.6400,0.2635,-0.0118,0.0000,5.4362,0.0594
10.6500,0.2635,-0.0118,0.0000,5.4356,0.0592
10.6600,0.2635,-0.0118,0.0000,5.4350,0.0592
10.6700,0.2635,-0.0118,0.0000,5.4345,0.0587
10.6800,0.2635,-0.0118,0.0000,5.4339,0.0586
10.6900,0.2635,-0.0118,0.0000,5.4333,0.0586
10.7000,0.2635,-0.0118,0.0000,5.4327,0.0584
10.7100,0.2635,-0.0118,0.0000,5.4321,0.0580
10.7200,0.2635,-0.0118,0.0000,5.4315,0.0580
10.7300,0.2635,-0.0118,0.0000,5.4310,0.0578
10.7400,0.2635,-0.0118,0.0000,5.4304,0.0575
10.7500,0.2635,-0.0118,0.0000,5.4298,0.0574
10.7600,0.2635,-0.0118,0.0000,5.4292,0.0573
10.7700,0.2635,-0.0118,0.0000,5.4287,0.0568
10.7800,0.2635,-0.0118,0.0000,5.4281,0.0568
10.7900,0.2635,-0.0118,0.0000,5.4275,0.0567
10.8000,0.2635,-0.0118,0.0000,5.4270,0.0564
10.8100,0.2635,-0.0118,0.0000,5.4264,0.0562
10.8200,0.2635,-0.0118,0.0000,5.4259,0.0561
10.8300,0.2635,-0.0118,0.0000,5.4253,0.0559
10.8400,0.2635,-0.0118,0.0000,5.4247,0.0555
10.8500,0.2635,-0.0118,0.0000,5.4242,0.0556
10.8600,0.2635,-0.0118,0.0000,5.4236,0.0555
10.8700,0.2635,-0.0118,0.0000,5.4231,0.0549
10.8800,0.2635,-0.0118,0.0000,5.4225,0.0549
10.8900,0.2635,-0.0118,0.0000,5.4220,0.0549
10.9000,0.2635,-0.0118,0.0000,5.4214,0.0546
10.9100,0.2635,-0.0118,0.0000,5.4209,0.0544
10.9200,0.2635,-0.0118,0.0000,5.4203,0.0543
10.9300,0.2635,-0.0118,0.0000,5.4198,0.0542
10.9400,0.2635,-0.0118,0.0000,5.4193,0.0537
10.9500,0.2635,-0.0118,0.0000,5.4187,0.0537
10.9600,0.2635,-0.0118,0.0000,5.4182,0.0537
10.9700,0.2635,-0.0118,0.0000,5.4177,0.0533
10.9800,0.2635,-0.0118,0.0000,5.4171,0.0531
10.9900,0.2635,-0.0118,0.0000,5.4166,0.0531
11.0000,0.2635,-0.0118,0.0000,5.4161,0.0530
11.0100,0.2635,-0.0118,0.0000,5.4155,0.0525
11.0200,0.2635,-0.0118,0.0000,5.4150,0.0525
11.0300,0.2635,-0.0118,0.0000,5.4145,0.0525
11.0400,0.2635,-0.0118,0.0000,5.4140,0.0522
11.0500,0.2635,-0.0118,0.0000,5.4135,0.0519
11.0600,0.2635,-0.0118,0.0000,5.4129,0.0519
11.0700,0.2635,-0.0118,0.0000,5.4124,0.0519
11.0800,0.2635,-0.0118,0.0000,5.4119,0.0513
11.0900,0.2635,-0.0118,0.0000,5.4114,0.0513
11.1000,0.2635,-0.0118,0.0000,5.4109,0.0513
11.1100,0.2635,-0.0118,0.0000,5.4104,0.0512
11.1200,0.2635,-0.0118,0.0000,5.4099,0.0506
11.1300,0.2635,-0.0118,0.0000,5.4094,0.0507
11.1400,0.2635,-0.0118,0.0000,5.4088,0.0506
11.1500,0.2635,-0.0118,0.0000,5.4083,0.0503
11.1600,0.2635,-0.0118,0.0000,5.4078,0.0500
11.1700,0.2635,-0.0118,0.0000,5.4073,0.0501
11.1800,0.2635,-0.0118,0.0000,5.4068,0.0501
11.1900,0.2635,-0.0118,0.0000,5.4063,0.0494
11.2000,0.2635,-0.0118,0.0000,5.4059,0.0494
11.2100,0.2635,-0.0118,0.0000,5.4054,0.0494
11.2200,0.2635,-0.0118,0.0000,5.4049,0.0494
11.2300,0.2635,-0.0118,0.0000,5.4044,0.0488
11.2400,0.2635,-0.0118,0.0000,5.4039,0.0488
11.2500,0.2635,-0.0118,0.0000,5.4034,0.0488
11.2600,0.2635,-0.0118,0.0000,5.4029,0.0486
11.2700,0.2635,-0.0118,0.0000,5.4024,0.0482
11.2800,0.2635,-0.0118,0.0000,5.4019,0.0482
11.2900,0.2635,-0.0118,0.0000,5.4015,0.0482
11.3000,0.2635,-0.0118,0.0000,5.4010,0.0480
11.3100,0.2635,-0.0118,0.0000,5.4005,0.0476
11.3200,0.2635,-0.0118,0.0000,5.4000,0.0476
11.3300,0.2635,-0.0118,0.0000,5.3996,0.0475
11.3400,0.2635,-0.0118,0.0000,5.3991,0.0472
11.3500,0.2635,-0.0118,0.0000,5.3986,0.0470
11.3600,0.2635,-0.0118,0.0000,5.3981,0.0470
11.3700,0.2635,-0.0118,0.0000,5.3977,0.0470
11.3800,0.2635,-0.0118,0.0000,5.3972,0.0466
11.3900,0.2635,-0.0118,0.0000,5.3967,0.0464
11.4000,0.2635,-0.0118,0.0000,5.3963,0.0464
11.4100,0.2635,-0.0118,0.0000,5.3958,0.0464
11.4200,0.2635,-0.0118,0.0000,5.3954,0.0461
11.4300,0.2635,-0.0118,0.0000,5.3949,0.0458
11.4400,0.2635,-0.0118,0.0000,5.3944,0.0458
11.4500,0.2635,-0.0118,0.0000,5.3940,0.0458
11.4600,0.2635,-0.0118,0.0000,5.3935,0.0455
11.4700,0.2635,-0.0118,0.0000,5.3931,0.0452
11.4800,0.2635,-0.0118,0.0000,5.3926,0.0452
11.4900,0.2635,-0.0118,0.0000,5.3922,0.0452
11.5000,0.2635,-0.0118,0.0000,5.3917,0.0450
11.5100,0.2635,-0.0118,0.0000,5.3913,0.0446
11.5200,0.2635,-0.0118,0.0000,5.3908,0.0445
11.5300,0.2635,-0.0118,0.0000,5.3904,0.0445
11.5400,0.2635,-0.0118,0.0000,5.3899,0.0445
11.5500,0.2635,-0.0118,0.0000,5.3895,0.0440
11.5600,0.2635,-0.0118,0.0000,5.3891,0.0440
11.5700,0.2635,-0.0118,0.0000,5.3886,0.0439
11.5800,0.2635,-0.0118,0.0000,5.3882,0.0438
11.5900,0.2635,-0.0118,0.0000,5.3878,0.0435
11.6000,0.2635,-0.0118,0.0000,5.3873,0.0433
11.6100,0.2635,-0.0118,0.0000,5.3869,0.0433
11.6200,0.2635,-0.0118,0.0000,5.3865,0.0433
11.6300,0.2635,-0.0118,0.0000,5.3860,0.0429
11.6400,0.2635,-0.0118,0.0000,5.3856,0.0427
11.6500,0.2635,-0.0118,0.0000,5.3852,0.0427
11.6600,0.2635,-0.0118,0.0000,5.3847,0.0427
11.6700,0.2635,-0.0118,0.0000,5.3843,0.0426
11.6800,0.2635,-0.0118,0.0000,5.3839,0.0421
11.6900,0.2635,-0.0118,0.0000,5.3835,0.0421
11.7000,0.2635,-0.0118,0.0000,5.3831,0.0422
11.7100,0.2635,-0.0118,0.0000,5.3826,0.0421
11.7200,0.2635,-0.0118,0.0000,5.3822,0.0416
11.7300,0.2635,-0.0118,0.0000,5.3818,0.0415
11.7400,0.2635,-0.0118,0.0000,5.3814,0.0415
11.7500,0.2635,-0.0118,0.0000,5.3810,0.0415
11.7600,0.2635,-0.0118,0.0000,5.3806,0.0412
11.7700,0.2635,-0.0118,0.0000,5.3801,0.0409
11.7800,0.2635,-0.0118,0.0000,5.3797,0.0409
11.7900,0.2635,-0.0118,0.0000,5.3793,0.0409
11.8000,0.2635,-0.0118,0.0000,5.3789,0.0408
11.8100,0.2635,-0.0118,0.0000,5.3785,0.0405
11.8200,0.2635,-0.0118,0.0000,5.3781,0.0403
11.8300,0.2635,-0.0118,0.0000,5.3777,0.0402
11.8400,0.2635,-0.0118,0.0000,5.3773,0.0403
11.8500,0.2635,-0.0118,0.0000,5.3769,0.0401
11.8600,0.2635,-0.0118,0.0000,5.3765,0.0398
11.8700,0.2635,-0.0118,0.0000,5.3761,0.0397
11.8800,0.2635,-0.0118,0.0000,5.3757,0.0397
11.8900,0.2635,-0.0118,0.0000,5.3753,0.0397
11.9000,0.2635,-0.0118,0.0000,5.3749,0.0393
11.9100,0.2635,-0.0118,0.0000,5.3745,0.0391
11.9200,0.2635,-0.0118,0.0000,5.3741,0.0391
11.9300,0.2635,-0.0118,0.0000,5.3738,0.0391
11.9400,0.2635,-0.0118,0.0000,5.3734,0.0391
11.9500,0.2635,-0.0118,0.0000,5.3730,0.0386
11.9600,0.2635,-0.0118,0.0000,5.3726,0.0385
11.9700,0.2635,-0.0118,0.0000,5.3722,0.0384
11.9800,0.2635,-0.0118,0.0000,5.3718,0.0385
11.9900,0.2635,-0.0118,0.0000,5.3714,0.0384
12.0000,0.2635,-0.0118,0.0000,5.3711,0.0380
12.0100,0.2635,-0.0118,0.0000,5.3707,0.0379
12.0200,0.2635,-0.0118,0.0000,5.3703,0.0378
12.0300,0.2635,-0.0118,0.0000,5.3699,0.0379
12.0400,0.2635,-0.0118,0.0000,5.3695,0.0378
12.0500,0.2635,-0.0118,0.0000,5.3692,0.0374
12.0600,0.2635,-0.0118,0.0000,5.3688,0.0372
12.0700,0.2635,-0.0118,0.0000,5.3684,0.0372
12.0800,0.2635,-0.0118,0.0000,5.3681,0.0372
12.0900,0.2635,-0.0118,0.0000,5.3677,0.0372
12.1000,0.2635,-0.0118,0.0000,5.3673,0.0367
12.1100,0.2635,-0.0118,0.0000,5.3670,0.0366
12.1200,0.2635,-0.0118,0.0000,5.3666,0.0366
12.1300,0.2635,-0.0118,0.0000,5.3662,0.0366
12.1400,0.2635,-0.0118,0.0000,5.3659,0.0366
12.1500,0.2635,-0.0118,0.0000,5.3655,0.0362
12.1600,0.2635,-0.0118,0.0000,5.3651,0.0360
12.1700,0.2635,-0.0118,0.0000,5.3648,0.0360
12.1800,0.2635,-0.0118,0.0000,5.3644,0.0360
12.1900,0.2635,-0.0118,0.0000,5.3641,0.0360
12.2000,0.2635,-0.0118,0.0000,5.3637,0.0356
12.2100,0.2635,-0.0118,0.0000,5.3633,0.0354
12.2200,0.2635,-0.0118,0.0000,5.3630,0.0354
12.2300,0.2635,-0.0118,0.0000,5.3626,0.0354
12.2400,0.2635,-0.0118,0.0000,5.3623,0.0354
12.2500,0.2635,-0.0118,0.0000,5.3619,0.0353
12.2600,0.2635,-0.0118,0.0000,5.3616,0.0348
12.2700,0.2635,-0.0118,0.0000,5.3612,0.0348
12.2800,0.2635,-0.0118,0.0000,5.3609,0.0348
12.2900,0.2635,-0.0118,0.0000,5.3605,0.0348
12.3000,0.2635,-0.0118,0.0000,5.3602,0.0347
12.3100,0.2635,-0.0118,0.0000,5.3598,0.0342
12.3200,0.2635,-0.0118,0.0000,5.3595,0.0342
12.3300,0.2635,-0.0118,0.0000,5.3592,0.0342
12.3400,0.2635,-0.0118,0.0000,5.3588,0.0341
12.3500,0.2635,-0.0118,0.0000,5.3585,0.0342
12.3600,0.2635,-0.0118,0.0000,5.3581,0.0339
12.3700,0.2635,-0.0118,0.0000,5.3711,-1.3009
12.3800,0.2635,-0.0118,0.0000,5.3702,0.0950
12.3900,0.2635,-0.0118,0.0000,5.3695,0.0680
12.4000,0.2635,-0.0118,0.0000,5.3688,0.0729
12.4100,0.2635,-0.0118,0.0000,5.3680,0.0751
12.4200,0.2635,-0.0118,0.0000,5.3673,0.0760
12.4300,0.2635,-0.0118,0.0000,5.3665,0.0754
12.4400,0.2635,-0.0118,0.0000,5.3658,0.0741
12.4500,0.2635,-0.0118,0.0000,5.3651,0.0721
12.4600,0.2635,-0.0118,0.0000,5.3644,0.0699
12.4700,0.2635,-0.0118,0.0000,5.3637,0.0673
12.4800,0.2635,-0.0118,0.0000,5.3630,0.0648
12.4900,0.2635,-0.0118,0.0000,5.3624,0.0622
12.5000,0.2635,-0.0118,0.0000,5.3618,0.0596
12.5100,0.2635,-0.0118,0.0000,5.3613,0.0556
12.5200,0.2635,-0.0118,0.0000,5.3607,0.0525
12.5300,0.2635,-0.0118,0.0000,5.3602,0.0503
12.5400,0.2635,-0.0118,0.0000,5.3598,0.0482
12.5500,0.2635,-0.0118,0.0000,5.3593,0.0463
12.5600,0.2635,-0.0118,0.0000,5.3588,0.0446
12.5700,0.2635,-0.0118,0.0000,5.3584,0.0429
12.5800,0.2635,-0.0118,0.0000,5.3580,0.0415
12.5900,0.2635,-0.0118,0.0000,5.3576,0.0401
12.6000,0.2635,-0.0118,0.0000,5.3572,0.0390
12.6100,0.2635,-0.0118,0.0000,5.3568,0.0380
12.6200,0.2635,-0.0118,0.0000,5.3565,0.0370
12.6300,0.2635,-0.0118,0.0000,5.3561,0.0361
12.6400,0.2635,-0.0118,0.0000,5.3557,0.0353
12.6500,0.2635,-0.0118,0.0000,5.3554,0.0346
12.6600,0.2635,-0.0118,0.0000,5.3551,0.0340
12.6700,0.2635,-0.0118,0.0000,5.3547,0.0334
12.6800,0.2635,-0.0118,0.0000,5.3544,0.0329
12.6900,0.2635,-0.0118,0.0000,5.3541,0.0323
12.7000,0.2635,-0.0118,0.0000,5.3538,0.0320
12.7100,0.2635,-0.0118,0.0000,5.3534,0.0318
12.7200,0.2635,-0.0118,0.0000,5.3531,0.0312
12.7300,0.2635,-0.0118,0.0000,5.3528,0.0311
12.7400,0.2635,-0.0118,0.0000,5.3525,0.0306
12.7500,0.2635,-0.0118,0.0000,5.3522,0.0305
12.7600,0.2635,-0.0118,0.0000,5.3519,0.0304
12.7700,0.2635,-0.0118,0.0000,5.3516,0.0299
12.7800,0.2635,-0.0118,0.0000,5.3513,0.0299
12.7900,0.2635,-0.0118,0.0000,5.3510,0.0299
12.8000,0.2635,-0.0118,0.0000,5.3507,0.0294
12.8100,0.2635,-0.0118,0.0000,5.3504,0.0293
12.8200,0.2635,-0.0118,0.0000,5.3501,0.0293
12.8300,0.2635,-0.0118,0.0000,5.3498,0.0293
12.8400,0.2635,-0.0118,0.0000,5.3495,0.0290
12.8500,0.2635,-0.0118,0.0000,5.3493,0.0287
12.8600,0.2635,-0.0118,0.0000,5.3490,0.0287
12.8700,0.2635,-0.0118,0.0000,5.3487,0.0287
12.8800,0.2635,-0.0118,0.0000,5.3484,0.0287
12.8900,0.2635,-0.0118,0.0000,5.3481,0.0287
12.9000,0.2635,-0.0118,0.0000,5.3478,0.0285
12.9100,0.2635,-0.0118,0.0000,5.3475,0.0280
12.9200,0.2635,-0.0118,0.0000,5.3473,0.0281
12.9300,0.2635,-0.0118,0.0000,5.3537,-0.6451
12.9400,0.2635,-0.0118,0.0000,5.3518,0.1935
12.9500,0.2635,-0.0118,0.0000,5.3508,0.0969
12.9600,0.2635,-0.0118,0.0000,5.3500,0.0815
12.9700,0.2635,-0.0118,0.0000,5.3493,0.0693
12.9800,0.2635,-0.0118,0.0000,5.3487,0.0598
12.9900,0.2635,-0.0118,0.0000,5.3482,0.0525
13.0000,0.2635,-0.0118,0.0000,5.3477,0.0467
13.0100,0.2635,-0.0118,0.0000,5.3473,0.0423
13.0200,0.2635,-0.0118,0.0000,5.3469,0.0390
13.0300,0.2635,-0.0118,0.0000,5.3465,0.0363
13.0400,0.2635,-0.0118,0.0000,5.3462,0.0344
13.0500,0.2635,-0.0118,0.0000,5.3459,0.0328
13.0600,0.2635,-0.0118,0.0000,5.3455,0.0318
13.0700,0.2635,-0.0118,0.0000,5.3452,0.0300
13.0800,0.2635,-0.0118,0.0000,5.3450,0.0290
13.0900,0.2635,-0.0118,0.0000,5.3447,0.0287
13.1000,0.2635,-0.0118,0.0000,5.3444,0.0284
13.1100,0.2635,-0.0118,0.0000,5.3441,0.0281
13.1200,0.2635,-0.0118,0.0000,5.3438,0.0281
13.1300,0.2635,-0.0118,0.0000,5.3435,0.0281
13.1400,0.2635,-0.0118,0.0000,5.3433,0.0277
13.1500,0.2635,-0.0118,0.0000,5.3430,0.0275
13.1600,0.2635,-0.0118,0.0000,5.3427,0.0275
13.1700,0.2635,-0.0118,0.0000,5.3424,0.0275
13.1800,0.2635,-0.0118,0.0000,5.3422,0.0275
13.1900,0.2635,-0.0118,0.0000,5.3419,0.0275
13.2000,0.2635,-0.0118,0.0000,5.3416,0.0273
13.2100,0.2635,-0.0118,0.0000,5.3413,0.0268
13.2200,0.2635,-0.0118,0.0000,5.3411,0.0268
13.2300,0.2635,-0.0118,0.0000,5.3408,0.0268
13.2400,0.2635,-0.0118,0.0000,5.3405,0.0269
13.2500,0.2635,-0.0118,0.0000,5.3403,0.0268
13.2600,0.2635,-0.0118,0.0000,5.3400,0.0265
13.2700,0.2635,-0.0118,0.0000,5.3397,0.0263
13.2800,0.2635,-0.0118,0.0000,5.3395,0.0262
13.2900,0.2635,-0.0118,0.0000,5.3392,0.0262
13.3000,0.2635,-0.0118,0.0000,5.3390,0.0263
13.3100,0.2635,-0.0118,0.0000,5.3387,0.0259
13.3200,0.2635,-0.0118,0.0000,5.3384,0.0256
13.3300,0.2635,-0.0118,0.0000,5.3382,0.0257
13.3400,0.2635,-0.0118,0.0000,5.3379,0.0257
13.3500,0.2635,-0.0118,0.0000,5.3377,0.0256
13.3600,0.2635,-0.0118,0.0000,5.3374,0.0253
13.3700,0.2635,-0.0118,0.0000,5.3372,0.0250
13.3800,0.2635,-0.0118,0.0000,5.3369,0.0250
13.3900,0.2635,-0.0118,0.0000,5.3367,0.0250
13.4000,0.2635,-0.0118,0.0000,5.3364,0.0250
13.4100,0.2635,-0.0118,0.0000,5.3362,0.0247
13.4200,0.2635,-0.0118,0.0000,5.3359,0.0244
13.4300,0.2635,-0.0118,0.0000,5.3357,0.0244
13.4400,0.2635,-0.0118,0.0000,5.3354,0.0244
13.4500,0.2635,-0.0118,0.0000,5.3352,0.0244
13.4600,0.2635,-0.0118,0.0000,5.3350,0.0243
13.4700,0.2635,-0.0118,0.0000,5.3347,0.0238
13.4800,0.2635,-0.0118,0.0000,5.3345,0.0238
13.4900,0.2635,-0.0118,0.0000,5.3342,0.0238
13.5000,0.2635,-0.0118,0.0000,5.3340,0.0238
13.5100,0.2635,-0.0118,0.0000,5.3338,0.0238
13.5200,0.2635,-0.0118,0.0000,5.3335,0.0235
13.5300,0.2635,-0.0118,0.0000,5.3333,0.0232
13.5400,0.2635,-0.0118,0.0000,5.3331,0.0232
13.5500,0.2635,-0.0118,0.0000,5.3328,0.0232
13.5600,0.2635,-0.0118,0.0000,5.3326,0.0232
13.5700,0.2635,-0.0118,0.0000,5.3324,0.0232
13.5800,0.2635,-0.0118,0.0000,5.3321,0.0231
13.5900,0.2635,-0.0118,0.0000,5.3319,0.0226
13.6000,0.2635,-0.0118,0.0000,5.3317,0.0226
13.6100,0.2635,-0.0118,0.0000,5.3315,0.0226
13.6200,0.2635,-0.0118,0.0000,5.3312,0.0226
13.6300,0.2635,-0.0118,0.0000,5.3310,0.0226
13.6400,0.2635,-0.0118,0.0000,5.3308,0.0226
13.6500,0.2635,-0.0118,0.0000,5.3306,0.0224
13.6600,0.2635,-0.0118,0.0000,5.3303,0.0220
13.6700,0.2635,-0.0118,0.0000,5.3301,0.0220
13.6800,0.2635,-0.0118,0.0000,5.3299,0.0219
13.6900,0.2635,-0.0118,0.0000,5.3297,0.0220
13.7000,0.2635,-0.0118,0.0000,5.3295,0.0220
13.7100,0.2635,-0.0118,0.0000,5.3292,0.0220
13.7200,0.2635,-0.0118,0.0000,5.3290,0.0219
13.7300,0.2635,-0.0118,0.0000,5.3288,0.0215
13.7400,0.2635,-0.0118,0.0000,5.3286,0.0214
13.7500,0.2635,-0.0118,0.0000,5.3284,0.0214
13.7600,0.2635,-0.0118,0.0000,5.3282,0.0214
13.7700,0.2635,-0.0118,0.0000,5.3280,0.0214
13.7800,0.2635,-0.0118,0.0000,5.3277,0.0214
13.7900,0.2635,-0.0118,0.0000,5.3275,0.0214
13.8000,0.2635,-0.0118,0.0000,5.3273,0.0212
13.8100,0.2635,-0.0118,0.0000,5.3271,0.0209
13.8200,0.2635,-0.0118,0.0000,5.3269,0.0207
13.8300,0.2635,-0.0118,0.0000,5.3267,0.0208
13.8400,0.2635,-0.0118,0.0000,5.3265,0.0207
13.8500,0.2635,-0.0118,0.0000,5.3263,0.0207
13.8600,0.2635,-0.0118,0.0000,5.3261,0.0207
13.8700,0.2635,-0.0118,0.0000,5.3259,0.0207
13.8800,0.2635,-0.0118,0.0000,5.3257,0.0208
13.8900,0.2635,-0.0118,0.0000,5.3254,0.0204
13.9000,0.2635,-0.0118,0.0000,5.3252,0.0202
13.9100,0.2635,-0.0118,0.0000,5.3250,0.0201
13.9200,0.2635,-0.0118,0.0000,5.3248,0.0202
13.9300,0.2635,-0.0118,0.0000,5.3246,0.0201
13.9400,0.2635,-0.0118,0.0000,5.3244,0.0201
13.9500,0.2635,-0.0118,0.0000,5.3242,0.0202
13.9600,0.2635,-0.0118,0.0000,5.3240,0.0201
13.9700,0.2635,-0.0118,0.0000,5.3238,0.0202
13.9800,0.2635,-0.0118,0.0000,5.3236,0.0197
13.9900,0.2635,-0.0118,0.0000,5.3234,0.0196
14.0000,0.2635,-0.0118,0.0000,5.3232,0.0195
14.0100,0.2635,-0.0118,0.0000,5.3231,0.0196
14.0200,0.2635,-0.0118,0.0000,5.3229,0.0196
14.0300,0.2635,-0.0118,0.0000,5.3227,0.0195
14.0400,0.2635,-0.0118,0.0000,5.3225,0.0196
14.0500,0.2635,-0.0118,0.0000,5.3223,0.0195
14.0600,0.2635,-0.0118,0.0000,5.3221,0.0196
14.0700,0.2635,-0.0118,0.0000,5.3219,0.0193
14.0800,0.2635,-0.0118,0.0000,5.3217,0.0189
14.0900,0.2635,-0.0118,0.0000,5.3215,0.0189
14.1000,0.2635,-0.0118,0.0000,5.3213,0.0189
14.1100,0.2635,-0.0118,0.0000,5.3211,0.0189
14.1200,0.2635,-0.0118,0.0000,5.3209,0.0189
14.1300,0.2635,-0.0118,0.0000,5.3207,0.0189
14.1400,0.2635,-0.0118,0.0000,5.3206,0.0189
14.1500,0.2635,-0.0118,0.0000,5.3204,0.0189
14.1600,0.2635,-0.0118,0.0000,5.3202,0.0189
14.1700,0.2635,-0.0118,0.0000,5.3200,0.0185
14.1800,0.2635,-0.0118,0.0000,5.3198,0.0183
14.1900,0.2635,-0.0118,0.0000,5.3196,0.0183
14.2000,0.2635,-0.0118,0.0000,5.3194,0.0183
14.2100,0.2635,-0.0118,0.0000,5.3193,0.0183
14.2200,0.2635,-0.0118,0.0000,5.3191,0.0183
14.2300,0.2635,-0.0118,0.0000,5.3189,0.0183
14.2400,0.2635,-0.0118,0.0000,5.3187,0.0183
14.2500,0.2635,-0.0118,0.0000,5.3185,0.0183
14.2600,0.2635,-0.0118,0.0000,5.3183,0.0183
14.2700,0.2635,-0.0118,0.0000,5.3182,0.0180
14.2800,0.2635,-0.0118,0.0000,5.3180,0.0177
14.2900,0.2635,-0.0118,0.0000,5.3178,0.0177
14.3000,0.2635,-0.0118,0.0000,5.3176,0.0177
14.3100,0.2635,-0.0118,0.0000,5.3175,0.0177
14.3200,0.2635,-0.0118,0.0000,5.3173,0.0177
14.3300,0.2635,-0.0118,0.0000,5.3171,0.0177
14.3400,0.2635,-0.0118,0.0000,5.3169,0.0177
14.3500,0.2635,-0.0118,0.0000,5.3168,0.0177
14.3600,0.2635,-0.0118,0.0000,5.3166,0.0177
14.3700,0.2635,-0.0118,0.0000,5.3164,0.0176
14.3800,0.2635,-0.0118,0.0000,5.3162,0.0172
14.3900,0.2635,-0.0118,0.0000,5.3161,0.0111
14.4000,0.2635,-0.0118,0.0000,5.3161,0.0045
14.4100,0.2635,-0.0118,0.0000,5.3160,0.0042
14.4200,0.2635,-0.0118,0.0000,5.3160,0.0037
14.4300,0.2635,-0.0118,0.0000,5.3160,0.0037
14.4400,0.2635,-0.0118,0.0000,5.3159,0.0037
14.4500,0.2635,-0.0118,0.0000,5.3159,0.0039
14.4600,0.2635,-0.0118,0.0000,5.3158,0.0042
14.4700,0.2635,-0.0118,0.0000,5.3158,0.0043
14.4800,0.2635,-0.0118,0.0000,5.3158,0.0042
14.4900,0.2635,-0.0118,0.0000,5.3157,0.0047
14.5000,0.2635,-0.0118,0.0000,5.3157,0.0049
14.5100,0.2635,-0.0118,0.0000,5.3156,0.0049
14.5200,0.2635,-0.0118,0.0000,5.3156,0.0051
14.5300,0.2635,-0.0118,0.0000,5.3155,0.0054
14.5400,0.2635,-0.0118,0.0000,5.3154,0.0055
14.5500,0.2635,-0.0118,0.0000,5.3154,0.0055
14.5600,0.2635,-0.0118,0.0000,5.3153,0.0056
14.5700,0.2635,-0.0118,0.0000,5.3153,0.0059
14.5800,0.2635,-0.0118,0.0000,5.3152,0.0061
14.5900,0.2635,-0.0118,0.0000,5.3152,0.0061
14.6000,0.2635,-0.0118,0.0000,5.3151,0.0061
14.6100,0.2635,-0.0118,0.0000,5.3150,0.0061
14.6200,0.2635,-0.0118,0.0000,5.3150,0.0061
14.6300,0.2635,-0.0118,0.0000,5.3149,0.0061
14.6400,0.2635,-0.0118,0.0000,5.3148,0.0061
14.6500,0.2635,-0.0118,0.0000,5.3148,0.0063
14.6600,0.2635,-0.0118,0.0000,5.3147,0.0064
14.6700,0.2635,-0.0118,0.0000,5.3147,0.0066
14.6800,0.2635,-0.0118,0.0000,5.3146,0.0066
14.6900,0.2635,-0.0118,0.0000,5.3145,0.0066
14.7000,0.2635,-0.0118,0.0000,5.3145,0.0065
14.7100,0.2635,-0.0118,0.0000,5.3144,0.0067
14.7200,0.2635,-0.0118,0.0000,5.3143,0.0066
14.7300,0.2635,-0.0118,0.0000,5.3143,0.0066
14.7400,0.2635,-0.0118,0.0000,5.3142,0.0066
14.7500,0.2635,-0.0118,0.0000,5.3141,0.0067
14.7600,0.2635,-0.0118,0.0000,5.3141,0.0065
14.7700,0.2635,-0.0118,0.0000,5.3140,0.0066
14.7800,0.2635,-0.0118,0.0000,5.3139,0.0064
14.7900,0.2635,-0.0118,0.0000,5.3139,0.0064
14.8000,0.2635,-0.0118,0.0000,5.3138,0.0063
14.8100,0.2635,-0.0118,0.0000,5.3137,0.0063
14.8200,0.2635,-0.0118,0.0000,5.3137,0.0064
14.8300,0.2635,-0.0118,0.0000,5.3136,0.0062
14.8400,0.2635,-0.0118,0.0000,5.3136,0.0063
14.8500,0.2635,-0.0118,0.0000,5.3135,0.0062
14.8600,0.2635,-0.0118,0.0000,5.3134,0.0062
14.8700,0.2635,-0.0118,0.0000,5.3134,0.0062
14.8800,0.2635,-0.0118,0.0000,5.3133,0.0062
14.8900,0.2635,-0.0118,0.0000,5.3132,0.0061
14.9000,0.2635,-0.0118,0.0000,5.3132,0.0061
14.9100,0.2635,-0.0118,0.0000,5.3131,0.0061
14.9200,0.2635,-0.0118,0.0000,5.3131,0.0061
14.9300,0.2635,-0.0118,0.0000,5.3130,0.0061
14.9400,0.2635,-0.0118,0.0000,5.3129,0.0061
14.9500,0.2635,-0.0118,0.0000,5.3129,0.0061
14.9600,0.2635,-0.0118,0.0000,5.3129,-0.0008
14.9700,0.2635,-0.0118,0.0000,5.3129,-0.0007
14.9800,0.2635,-0.0118,0.0000,5.3129,0.0000
14.9900,0.2635,-0.0118,0.0000,5.3129,0.0005
15.0000,0.2635,-0.0118,0.0000,5.3129,0.0006
15.0100,0.2635,-0.0118,0.0000,5.3199,0.0006
15.0200,0.2635,-0.0118,0.0000,5.3147,0.0006
15.0300,0.2635,-0.0118,0.0000,5.3104,0.0006
15.0400,0.2635,-0.0118,0.0000,5.3068,0.0006
15.0500,0.2635,-0.0118,0.0000,5.3038,0.0006
15.0600,0.2635,-0.0118,0.0000,5.3012,0.0006
15.0700,0.2635,-0.0118,0.0000,5.2990,0.0006
15.0800,0.2635,-0.0118,0.0000,5.2970,0.0006
15.0900,0.2635,-0.0118,0.0000,5.2952,0.0006
15.1000,0.2635,-0.0118,0.0000,5.2936,0.0006
15.1100,0.2635,-0.0118,0.0000,5.2921,0.0006
15.1200,0.2635,-0.0118,0.0000,5.2908,0.0006
15.1300,0.2635,-0.0118,0.0000,5.2895,0.0006
15.1400,0.2635,-0.0118,0.0000,5.2882,0.0006
15.1500,0.2635,-0.0118,0.0000,5.2870,0.0006
15.1600,0.2635,-0.0118,0.0000,5.2858,0.0006
15.1700,0.2635,-0.0118,0.0000,5.2847,0.0006
15.1800,0.2635,-0.0118,0.0000,5.2836,0.0006
15.1900,0.2635,-0.0118,0.0000,5.2825,0.0006
15.2000,0.2635,-0.0118,0.0000,5.2814,0.0006
15.2100,0.2635,-0.0118,0.0000,5.2803,0.0006
15.2200,0.2635,-0.0118,0.0000,5.2792,0.0006
15.2300,0.2635,-0.0118,0.0000,5.2781,0.0006
15.2400,0.2635,-0.0118,0.0000,5.2770,0.0006
15.2500,0.2635,-0.0118,0.0000,5.2760,0.0006
15.2600,0.2635,-0.0118,0.0000,5.2749,0.0006
15.2700,0.2635,-0.0118,0.0000,5.2738,0.0006
15.2800,0.2635,-0.0118,0.0000,5.2727,0.0006
15.2900,0.2635,-0.0118,0.0000,5.2716,0.0006
15.3000,0.2635,-0.0118,0.0000,5.2706,0.0006
15.3100,0.2635,-0.0118,0.0000,5.2695,0.0006
15.3200,0.2635,-0.0118,0.0000,5.2684,0.0006
15.3300,0.2635,-0.0118,0.0000,5.2673,0.0006
15.3400,0.2635,-0.0118,0.0000,5.2662,0.0006
15.3500,0.2635,-0.0118,0.0000,5.2651,0.0006
15.3600,0.2635,-0.0118,0.0000,5.2641,0.0006
15.3700,0.2635,-0.0118,0.0000,5.2630,0.0006
15.3800,0.2635,-0.0118,0.0000,5.2619,0.0006
15.3900,0.2635,-0.0118,0.0000,5.2608,0.0006
15.4000,0.2635,-0.0118,0.0000,5.2597,0.0006
15.4100,0.2635,-0.0118,0.0000,5.2587,0.0006
15.4200,0.2635,-0.0118,0.0000,5.2576,0.0006
15.4300,0.2635,-0.0118,0.0000,5.2565,0.0006
15.4400,0.2635,-0.0118,0.0000,5.2554,0.0006
15.4500,0.2635,-0.0118,0.0000,5.2544,0.0006
15.4600,0.2635,-0.0118,0.0000,5.2533,0.0006
15.4700,0.2635,-0.0118,0.0000,5.2522,0.0006
15.4800,0.2635,-0.0118,0.0000,5.2511,0.0006
15.4900,0.2635,-0.0118,0.0000,5.2501,0.0006
15.5000,0.2635,-0.0118,0.0000,5.2490,0.0006
15.5100,0.2635,-0.0118,0.0000,5.2479,0.0006
15.5200,0.2635,-0.0118,0.0000,5.2469,0.0006
15.5300,0.2635,-0.0118,0.0000,5.2458,0.0006
15.5400,0.2635,-0.0118,0.0000,5.2448,0.0006
15.5500,0.2635,-0.0118,0.0000,5.2437,0.0006
15.5600,0.2635,-0.0118,0.0000,5.2427,0.0006
15.5700,0.2635,-0.0118,0.0000,5.2416,0.0006
15.5800,0.2635,-0.0118,0.0000,5.2406,0.0006
15.5900,0.2635,-0.0118,0.0000,5.2395,0.0006
15.6000,0.2635,-0.0118,0.0000,5.2385,0.0006
15.6100,0.2635,-0.0118,0.0000,5.2375,0.0006
15.6200,0.2635,-0.0118,0.0000,5.2364,0.0006
15.6300,0.2635,-0.0118,0.0000,5.2354,0.0006
15.6400,0.2635,-0.0118,0.0000,5.2344,0.0006
15.6500,0.2635,-0.0118,0.0000,5.2334,0.0006
15.6600,0.2635,-0.0118,0.0000,5.2323,0.0006
15.6700,0.2635,-0.0118,0.0000,5.2313,0.0006
15.6800,0.2635,-0.0118,0.0000,5.2303,0.0006
15.6900,0.2635,-0.0118,0.0000,5.2293,0.0006
15.7000,0.2635,-0.0118,0.0000,5.2283,0.0006
15.7100,0.2635,-0.0118,0.0000,5.2273,0.0006
15.7200,0.2635,-0.0118,0.0000,5.2263,0.0006
15.7300,0.2635,-0.0118,0.0000,5.2253,0.0006
15.7400,0.2635,-0.0118,0.0000,5.2243,0.0006
15.7500,0.2635,-0.0118,0.0000,5.2233,0.0006
15.7600,0.2635,-0.0118,0.0000,5.2223,0.0006
15.7700,0.2635,-0.0118,0.0000,5.2213,0.0006
15.7800,0.2635,-0.0118,0.0000,5.2203,0.0006
15.7900,0.2635,-0.0118,0.0000,5.2193,0.0006
15.8000,0.2635,-0.0118,0.0000,5.2184,0.0006
15.8100,0.2635,-0.0118,0.0000,5.2174,0.0006
15.8200,0.2635,-0.0118,0.0000,5.2164,0.0006
15.8300,0.2635,-0.0118,0.0000,5.2154,0.0006
15.8400,0.2635,-0.0118,0.0000,5.2145,0.0006
15.8500,0.2635,-0.0118,0.0000,5.2135,0.0006
15.8600,0.2635,-0.0118,0.0000,5.2126,0.0006
15.8700,0.2635,-0.0118,0.0000,5.2116,0.0006
15.8800,0.2635,-0.0118,0.0000,5.2106,0.0006
15.8900,0.2635,-0.0118,0.0000,5.2097,0.0006
15.9000,0.2635,-0.0118,0.0000,5.2087,0.0006
15.9100,0.2635,-0.0118,0.0000,5.2078,0.0006
15.9200,0.2635,-0.0118,0.0000,5.2069,0.0006
15.9300,0.2635,-0.0118,0.0000,5.2059,0.0006
15.9400,0.2635,-0.0118,0.0000,5.2050,0.0006
15.9500,0.2635,-0.0118,0.0000,5.2041,0.0006
15.9600,0.2635,-0.0118,0.0000,5.2031,0.0006
15.9700,0.2635,-0.0118,0.0000,5.2022,0.0006
15.9800,0.2635,-0.0118,0.0000,5.2013,0.0006
15.9900,0.2635,-0.0118,0.0000,5.2004,0.0006
16.0000,0.2635,-0.0118,0.0000,5.1994,0.0006
16.0100,0.2635,-0.0118,0.0000,5.1985,0.0006
16.0200,0.2635,-0.0118,0.0000,5.1976,0.0006
16.0300,0.2635,-0.0118,0.0000,5.1967,0.0006
16.0400,0.2635,-0.0118,0.0000,5.1958,0.0006
16.0500,0.2635,-0.0118,0.0000,5.1949,0.0006
16.0600,0.2635,-0.0118,0.0000,5.1940,0.0006
16.0700,0.2635,-0.0118,0.0000,5.1931,0.0006
16.0800,0.2635,-0.0118,0.0000,5.1922,0.0006
16.0900,0.2635,-0.0118,0.0000,5.1913,0.0006
16.1000,0.2635,-0.0118,0.0000,5.1904,0.0006
16.1100,0.2635,-0.0118,0.0000,5.1896,0.0006
16.1200,0.2635,-0.0118,0.0000,5.1887,0.0006
16.1300,0.2635,-0.0118,0.0000,5.1878,0.0006
16.1400,0.2635,-0.0118,0.0000,5.1869,0.0006
16.1500,0.2635,-0.0118,0.0000,5.1860,0.0006
16.1600,0.2635,-0.0118,0.0000,5.1852,0.0006
16.1700,0.2635,-0.0118,0.0000,5.1843,0.0006
16.1800,0.2635,-0.0118,0.0000,5.1834,0.0006
16.1900,0.2635,-0.0118,0.0000,5.1826,0.0006
16.2000,0.2635,-0.0118,0.0000,5.1821,0.0006
16.2100,0.2635,-0.0118,0.0000,5.1820,0.0006
16.2200,0.2635,-0.0118,0.0000,5.1818,0.0006
16.2300,0.2635,-0.0118,0.0000,5.1817,0.0006
16.2400,0.2635,-0.0118,0.0000,5.1816,0.0006
16.2500,0.2635,-0.0118,0.0000,5.1815,0.0006
16.2600,0.2635,-0.0118,0.0000,5.1814,0.0006
16.2700,0.2635,-0.0118,0.0000,5.1813,0.0006
16.2800,0.2635,-0.0118,0.0000,5.1812,0.0006
16.2900,0.2635,-0.0118,0.0000,5.1810,0.0006
16.3000,0.2635,-0.0118,0.0000,5.1809,0.0006
16.3100,0.2635,-0.0118,0.0000,5.1807,0.0006
16.3200,0.2635,-0.0118,0.0000,5.1805,0.0006
16.3300,0.2635,-0.0118,0.0000,5.1803,0.0006
16.3400,0.2635,-0.0118,0.0000,5.1801,0.0006
16.3500,0.2635,-0.0118,0.0000,5.1799,0.0006
16.3600,0.2635,-0.0118,0.0000,5.1797,0.0006
16.3700,0.2635,-0.0118,0.0000,5.1794,0.0006
16.3800,0.2635,-0.0118,0.0000,5.1792,0.0006
16.3900,0.2635,-0.0118,0.0000,5.1790,0.0006
16.4000,0.2635,-0.0118,0.0000,5.1787,0.0006
16.4100,0.2635,-0.0118,0.0000,5.1785,0.0006
16.4200,0.2635,-0.0118,0.0000,5.1782,0.0006
16.4300,0.2635,-0.0118,0.0000,5.1780,0.0006
16.4400,0.2635,-0.0118,0.0000,5.1777,0.0006
16.4500,0.2635,-0.0118,0.0000,5.1774,0.0006
16.4600,0.2635,-0.0118,0.0000,5.1772,0.0006
16.4700,0.2635,-0.0118,0.0000,5.1769,0.0006
16.4800,0.2635,-0.0118,0.0000,5.1766,0.0006
16.4900,0.2635,-0.0118,0.0000,5.1763,0.0006
16.5000,0.2635,-0.0118,0.0000,5.1761,0.0006
16.5100,0.2635,-0.0118,0.0000,5.1758,0.0278
16.5200,0.2635,-0.0118,0.0000,5.1755,0.0278
16.5300,0.2635,-0.0118,0.0000,5.1752,0.0277
16.5400,0.2635,-0.0118,0.0000,5.1749,0.0278
16.5500,0.2635,-0.0118,0.0000,5.1747,0.0279
16.5600,0.2635,-0.0118,0.0000,5.1744,0.0279
16.5700,0.2635,-0.0118,0.0000,5.1741,0.0279
16.5800,0.2635,-0.0118,0.0000,5.1738,0.0280
16.5900,0.2635,-0.0118,0.0000,5.1735,0.0279
16.6000,0.2635,-0.0118,0.0000,5.1733,0.0276
16.6100,0.2635,-0.0118,0.0000,5.1730,0.0276
16.6200,0.2635,-0.0118,0.0000,5.1727,0.0276
16.6300,0.2635,-0.0118,0.0000,5.1724,0.0276
16.6400,0.2635,-0.0118,0.0000,5.1722,0.0275
16.6500,0.2635,-0.0118,0.0000,5.1719,0.0275
16.6600,0.2635,-0.0118,0.0000,5.1716,0.0275
16.6700,0.2635,-0.0118,0.0000,5.1713,0.0273
16.6800,0.2635,-0.0118,0.0000,5.1711,0.0273
16.6900,0.2635,-0.0118,0.0000,5.1708,0.0304
16.7000,0.2635,-0.0118,0.0000,5.1705,0.0319
16.7100,0.2635,-0.0118,0.0000,5.1701,0.0354
16.7200,0.2635,-0.0118,0.0000,5.1697,0.0354
16.7300,0.2789,0.0037,0.0000,5.1694,0.0354
16.7400,0.2789,0.0037,0.0000,5.1691,0.0302
16.7500,0.2789,0.0037,0.0000,5.1689,0.0166
16.7600,0.2789,0.0037,0.0000,5.1689,0.0040
16.7700,0.2789,0.0037,0.0000,5.1690,-0.0100
16.7800,0.2789,0.0037,0.0000,5.1694,-0.0396
16.7900,0.2789,0.0037,0.0000,5.1700,-0.0663
16.8000,0.2789,0.0037,0.0000,5.1708,-0.0717
16.8100,0.2789,0.0037,0.0000,5.1715,-0.0758
16.8200,0.2789,0.0037,0.0000,5.1723,-0.0798
16.8300,0.2789,0.0037,0.0000,5.1732,-0.0839
16.8400,0.2789,0.0037,0.0000,5.1740,-0.0879
16.8500,0.2789,0.0037,0.0000,5.1749,-0.0916
16.8600,0.2789,0.0037,0.0000,5.1759,-0.0952
16.8700,0.2789,0.0037,0.0000,5.1769,-0.0985
16.8800,0.2789,0.0037,0.0000,5.1779,-0.1016
16.8900,0.2789,0.0037,0.0000,5.1789,-0.1045
16.9000,0.2789,0.0037,0.0000,5.1800,-0.1071
16.9100,0.2789,0.0037,0.0000,5.1811,-0.1094
16.9200,0.2789,0.0037,0.0000,5.1822,-0.1115
16.9300,0.2789,0.0037,0.0000,5.1834,-0.1134
16.9400,0.2789,0.0037,0.0000,5.1845,-0.1150
16.9500,0.2789,0.0037,0.0000,5.1857,-0.1165
16.9600,0.2789,0.0037,0.0000,5.1869,-0.1178
16.9700,0.2789,0.0037,0.0000,5.1880,-0.1189
16.9800,0.2789,0.0037,0.0000,5.1892,-0.1199
16.9900,0.2789,0.0037,0.0000,5.1904,-0.1207
17.0000,0.2789,0.0037,0.0000,5.1917,-0.1214
17.0100,0.2789,0.0037,0.0000,5.1929,-0.1220
17.0200,0.2789,0.0037,0.0000,5.1941,-0.1225
17.0300,0.2789,0.0037,0.0000,5.1953,-0.1227
17.0400,0.2789,0.0037,0.0000,5.1966,-0.1233
17.0500,0.2789,0.0037,0.0000,5.1978,-0.1233
17.0600,0.2789,0.0037,0.0000,5.1990,-0.1235
17.0700,0.2789,0.0037,0.0000,5.2003,-0.1237
17.0800,0.2789,0.0037,0.0000,5.2015,-0.1238
17.0900,0.2789,0.0037,0.0000,5.2027,-0.1238
17.1000,0.2789,0.0037,0.0000,5.2040,-0.1235
17.1100,0.2789,0.0037,0.0000,5.2052,-0.1233
17.1200,0.2789,0.0037,0.0000,5.2064,-0.1233
17.1300,0.2789,0.0037,0.0000,5.2077,-0.1233
17.1400,0.2789,0.0037,0.0000,5.2089,-0.1230
17.1500,0.2789,0.0037,0.0000,5.2101,-0.1227
17.1600,0.2789,0.0037,0.0000,5.2114,-0.1227
17.1700,0.2789,0.0037,0.0000,5.2126,-0.1221
17.1800,0.2789,0.0037,0.0000,5.2138,-0.1221
17.1900,0.2789,0.0037,0.0000,5.2150,-0.1216
17.2000,0.2789,0.0037,0.0000,5.2162,-0.1215
17.2100,0.2789,0.0037,0.0000,5.2175,-0.1212
17.2200,0.2789,0.0037,0.0000,5.2187,-0.1208
17.2300,0.2789,0.0037,0.0000,5.2199,-0.1205
17.2400,0.2789,0.0037,0.0000,5.2211,-0.1203
17.2500,0.2789,0.0037,0.0000,5.2223,-0.1197
17.2600,0.2789,0.0037,0.0000,5.2235,-0.1195
17.2700,0.2789,0.0037,0.0000,5.2246,-0.1169
17.2800,0.2789,0.0037,0.0000,5.2258,-0.1156
17.2900,0.2789,0.0037,0.0000,5.2269,-0.1139
17.3000,0.2789,0.0037,0.0000,5.2281,-0.1141
17.3100,0.2789,0.0037,0.0000,5.2292,-0.1139
17.3200,0.2789,0.0037,0.0000,5.2303,-0.1136
17.3300,0.2789,0.0037,0.0000,5.2315,-0.1135
17.3400,0.2789,0.0037,0.0000,5.2326,-0.1132
17.3500,0.2789,0.0037,0.0000,5.2337,-0.1129
17.3600,0.2789,0.0037,0.0000,5.2349,-0.1125
17.3700,0.2789,0.0037,0.0000,5.2360,-0.1123
17.3800,0.2789,0.0037,0.0000,5.2371,-0.1118
17.3900,0.2789,0.0037,0.0000,5.2382,-0.1114
17.4000,0.2789,0.0037,0.0000,5.2393,-0.1111
17.4100,0.2789,0.0037,0.0000,5.2404,-0.1105
17.4200,0.2789,0.0037,0.0000,5.2415,-0.1101
17.4300,0.2789,0.0037,0.0000,5.2426,-0.1098
17.4400,0.2789,0.0037,0.0000,5.2437,-0.1092
17.4500,0.2789,0.0037,0.0000,5.2448,-0.1090
17.4600,0.2789,0.0037,0.0000,5.2459,-0.1086
17.4700,0.2789,0.0037,0.0000,5.2470,-0.1081
17.4800,0.2789,0.0037,0.0000,5.2481,-0.1079
17.4900,0.2789,0.0037,0.0000,5.2491,-0.1074
17.5000,0.2789,0.0037,0.0000,5.2502,-0.1070
17.5100,0.2789,0.0037,0.0000,5.2513,-0.1068
17.5200,0.2789,0.0037,0.0000,5.2523,-0.1062
17.5300,0.2789,0.0037,0.0000,5.2534,-0.1060
17.5400,0.2789,0.0037,0.0000,5.2544,-0.1056
17.5500,0.2789,0.0037,0.0000,5.2555,-0.1052
17.5600,0.2789,0.0037,0.0000,5.2566,-0.1050
17.5700,0.2789,0.0037,0.0000,5.2576,-0.1044
17.5800,0.2789,0.0037,0.0000,5.2586,-0.1042
17.5900,0.2789,0.0037,0.0000,5.2597,-0.1038
17.6000,0.2789,0.0037,0.0000,5.2607,-0.1035
17.6100,0.2789,0.0037,0.0000,5.2617,-0.1031
17.6200,0.2789,0.0037,0.0000,5.2628,-0.1028
17.6300,0.2789,0.0037,0.0000,5.2638,-0.1025
17.6400,0.2789,0.0037,0.0000,5.2648,-0.1021
17.6500,0.2789,0.0037,0.0000,5.2658,-0.1019
17.6600,0.2789,0.0037,0.0000,5.2668,-0.1013
17.6700,0.2789,0.0037,0.0000,5.2679,-0.1011
17.6800,0.2789,0.0037,0.0000,5.2689,-0.1008
17.6900,0.2789,0.0037,0.0000,5.2699,-0.1005
17.7000,0.2789,0.0037,0.0000,5.2709,-0.1001
17.7100,0.2789,0.0037,0.0000,5.2719,-0.0997
17.7200,0.2789,0.0037,0.0000,5.2729,-0.0995
17.7300,0.2789,0.0037,0.0000,5.2739,-0.0992
17.7400,0.2789,0.0037,0.0000,5.2748,-0.0988
17.7500,0.2789,0.0037,0.0000,5.2758,-0.0985
17.7600,0.2789,0.0037,0.0000,5.2768,-0.0983
17.7700,0.2789,0.0037,0.0000,5.2778,-0.0978
17.7800,0.2789,0.0037,0.0000,5.2788,-0.0976
17.7900,0.2789,0.0037,0.0000,5.2797,-0.0972
17.8000,0.2789,0.0037,0.0000,5.2807,-0.0970
17.8100,0.2789,0.0037,0.0000,5.2817,-0.0965
17.8200,0.2789,0.0037,0.0000,5.2826,-0.0964
17.8300,0.2789,0.0037,0.0000,5.2836,-0.0959
17.8400,0.2789,0.0037,0.0000,5.2846,-0.0957
17.8500,0.2789,0.0037,0.0000,5.2855,-0.0953
17.8600,0.2789,0.0037,0.0000,5.2865,-0.0951
17.8700,0.2789,0.0037,0.0000,5.2874,-0.0947
17.8800,0.2789,0.0037,0.0000,5.2884,-0.0946
17.8900,0.2789,0.0037,0.0000,5.2893,-0.0941
17.9000,0.2789,0.0037,0.0000,5.2902,-0.0939
17.9100,0.2789,0.0037,0.0000,5.2912,-0.0935
17.9200,0.2789,0.0037,0.0000,5.2921,-0.0934
17.9300,0.2789,0.0037,0.0000,5.2930,-0.0928
17.9400,0.2789,0.0037,0.0000,5.2940,-0.0927
17.9500,0.2789,0.0037,0.0000,5.2949,-0.0924
17.9600,0.2789,0.0037,0.0000,5.2958,-0.0922
17.9700,0.2789,0.0037,0.0000,5.2967,-0.0917
17.9800,0.2789,0.0037,0.0000,5.2976,-0.0916
17.9900,0.2789,0.0037,0.0000,5.2985,-0.0911
18.0000,0.2789,0.0037,0.0000,5.2995,-0.0909
18.0100,0.2789,0.0037,0.0000,5.3004,-0.0906
18.0200,0.2789,0.0037,0.0000,5.3013,-0.0903
18.0300,0.2789,0.0037,0.0000,5.3022,-0.0900
18.0400,0.2789,0.0037,0.0000,5.3031,-0.0897
18.0500,0.2789,0.0037,0.0000,5.3040,-0.0895
18.0600,0.2789,0.0037,0.0000,5.3048,-0.0891
18.0700,0.2789,0.0037,0.0000,5.3057,-0.0875
18.0800,0.2789,0.0037,0.0000,5.3066,-0.0845
18.0900,0.2789,0.0037,0.0000,5.3074,-0.0839
18.1000,0.2789,0.0037,0.0000,5.3082,-0.0835
18.1100,0.2789,0.0037,0.0000,5.3091,-0.0831
18.1200,0.2789,0.0037,0.0000,5.3099,-0.0830
18.1300,0.2789,0.0037,0.0000,5.3107,-0.0824
18.1400,0.2789,0.0037,0.0000,5.3116,-0.0824
18.1500,0.2789,0.0037,0.0000,5.3124,-0.0824
18.1600,0.2789,0.0037,0.0000,5.3132,-0.0814
18.1700,0.2789,0.0037,0.0000,5.3140,-0.0776
18.1800,0.2789,0.0037,0.0000,5.3147,-0.0772
18.1900,0.2789,0.0037,0.0000,5.3155,-0.0769
18.2000,0.2789,0.0037,0.0000,5.3163,-0.0769
18.2100,0.2789,0.0037,0.0000,5.3170,-0.0765
18.2200,0.2789,0.0037,0.0000,5.3180,-0.0988
18.2300,0.2789,0.0037,0.0000,5.3190,-0.0992
18.2400,0.2789,0.0037,0.0000,5.3200,-0.0995
18.2500,0.2789,0.0037,0.0000,5.3210,-0.0992
18.2600,0.2789,0.0037,0.0000,5.3220,-0.0989
18.2700,0.2789,0.0037,0.0000,5.3230,-0.0986
18.2800,0.2789,0.0037,0.0000,5.3240,-0.0980
18.2900,0.2789,0.0037,0.0000,5.3249,-0.0976
18.3000,0.2789,0.0037,0.0000,5.3259,-0.0969
18.3100,0.2789,0.0037,0.0000,5.3269,-0.0963
18.3200,0.2789,0.0037,0.0000,5.3278,-0.0957
18.3300,0.2789,0.0037,0.0000,5.3288,-0.0951
18.3400,0.2789,0.0037,0.0000,5.3297,-0.0946
18.3500,0.2789,0.0037,0.0000,5.3307,-0.0941
18.3600,0.2789,0.0037,0.0000,5.3316,-0.0934
18.3700,0.2789,0.0037,0.0000,5.3325,-0.0928
18.3800,0.2789,0.0037,0.0000,5.3334,-0.0923
18.3900,0.2789,0.0037,0.0000,5.3344,-0.0919
18.4000,0.2789,0.0037,0.0000,5.3353,-0.0914
18.4100,0.2789,0.0037,0.0000,5.3362,-0.0909
18.4200,0.2789,0.0037,0.0000,5.3371,-0.0904
18.4300,0.2789,0.0037,0.0000,5.3380,-0.0900
18.4400,0.2789,0.0037,0.0000,5.3389,-0.0896
18.4500,0.2789,0.0037,0.0000,5.3398,-0.0891
18.4600,0.2789,0.0037,0.0000,5.3407,-0.0889
18.4700,0.2789,0.0037,0.0000,5.3416,-0.0885
18.4800,0.2789,0.0037,0.0000,5.3424,-0.0880
18.4900,0.2789,0.0037,0.0000,5.3433,-0.0877
18.5000,0.2789,0.0037,0.0000,5.3442,-0.0874
18.5100,0.2789,0.0037,0.0000,5.3451,-0.0872
18.5200,0.2789,0.0037,0.0000,5.3459,-0.0866
18.5300,0.2789,0.0037,0.0000,5.3468,-0.0865
18.5400,0.2789,0.0037,0.0000,5.3477,-0.0861
18.5500,0.2789,0.0037,0.0000,5.3485,-0.0858
18.5600,0.2789,0.0037,0.0000,5.3494,-0.0854
18.5700,0.2789,0.0037,0.0000,5.3502,-0.0852
18.5800,0.2789,0.0037,0.0000,5.3511,-0.0848
18.5900,0.2789,0.0037,0.0000,5.3519,-0.0847
18.6000,0.2789,0.0037,0.0000,5.3528,-0.0843
18.6100,0.2789,0.0037,0.0000,5.3536,-0.0841
18.6200,0.2789,0.0037,0.0000,5.3544,-0.0836
18.6300,0.2789,0.0037,0.0000,5.3553,-0.0839
18.6400,0.2789,0.0037,0.0000,5.3561,-0.0852
18.6500,0.2789,0.0037,0.0000,5.3570,-0.0855
18.6600,0.2789,0.0037,0.0000,5.3578,-0.0859
18.6700,0.2789,0.0037,0.0000,5.3587,-0.0858
18.6800,0.2789,0.0037,0.0000,5.3595,-0.0854
18.6900,0.2789,0.0037,0.0000,5.3604,-0.0854
18.7000,0.2789,0.0037,0.0000,5.3613,-0.0851
18.7100,0.2789,0.0037,0.0000,5.3621,-0.0848
18.7200,0.2789,0.0037,0.0000,5.3629,-0.0845
18.7300,0.2789,0.0037,0.0000,5.3638,-0.0814
18.7400,0.2789,0.0037,0.0000,5.3646,-0.0812
18.7500,0.2789,0.0037,0.0000,5.3654,-0.0812
18.7600,0.2789,0.0037,0.0000,5.3662,-0.0811
18.7700,0.2789,0.0037,0.0000,5.3670,-0.0806
18.7800,0.2789,0.0037,0.0000,5.3679,-0.0916
18.7900,0.2789,0.0037,0.0000,5.3689,-0.0948
18.8000,0.2789,0.0037,0.0000,5.3698,-0.0961
18.8100,0.2789,0.0037,0.0000,5.3708,-0.0952
18.8200,0.2789,0.0037,0.0000,5.3717,-0.0942
18.8300,0.2789,0.0037,0.0000,5.3727,-0.0936
18.8400,0.2789,0.0037,0.0000,5.3736,-0.0930
18.8500,0.2789,0.0037,0.0000,5.3745,-0.0923
18.8600,0.2789,0.0037,0.0000,5.3754,-0.0921
18.8700,0.2789,0.0037,0.0000,5.3763,-0.0916
18.8800,0.2789,0.0037,0.0000,5.3773,-0.0912
18.8900,0.2789,0.0037,0.0000,5.3782,-0.0910
18.9000,0.2789,0.0037,0.0000,5.3791,-0.0906
18.9100,0.2789,0.0037,0.0000,5.3800,-0.0903
18.9200,0.2789,0.0037,0.0000,5.3809,-0.0901
18.9300,0.2789,0.0037,0.0000,5.3818,-0.0897
18.9400,0.2789,0.0037,0.0000,5.3827,-0.0897
18.9500,0.2789,0.0037,0.0000,5.3836,-0.0891
18.9600,0.2789,0.0037,0.0000,5.3845,-0.0891
18.9700,0.2789,0.0037,0.0000,5.3853,-0.0886
18.9800,0.2789,0.0037,0.0000,5.3862,-0.0885
18.9900,0.2789,0.0037,0.0000,5.3871,-0.0882
19.0000,0.2789,0.0037,0.0000,5.3880,-0.0879
19.0100,0.2789,0.0037,0.0000,5.3889,-0.0878
19.0200,0.2789,0.0037,0.0000,5.3897,-0.0873
19.0300,0.2789,0.0037,0.0000,5.3906,-0.0873
19.0400,0.2789,0.0037,0.0000,5.3915,-0.0868
19.0500,0.2789,0.0037,0.0000,5.3923,-0.0867
19.0600,0.2789,0.0037,0.0000,5.3932,-0.0865
19.0700,0.2789,0.0037,0.0000,5.3941,-0.0861
19.0800,0.2789,0.0037,0.0000,5.3949,-0.0859
19.0900,0.2789,0.0037,0.0000,5.3958,-0.0854
19.1000,0.2789,0.0037,0.0000,5.3966,-0.0854
19.1100,0.2789,0.0037,0.0000,5.3975,-0.0849
19.1200,0.2789,0.0037,0.0000,5.3983,-0.0848
19.1300,0.2789,0.0037,0.0000,5.3992,-0.0845
19.1400,0.2789,0.0037,0.0000,5.4000,-0.0842
19.1500,0.2789,0.0037,0.0000,5.4009,-0.0841
19.1600,0.2789,0.0037,0.0000,5.4017,-0.0836
19.1700,0.2789,0.0037,0.0000,5.4025,-0.0836
19.1800,0.2789,0.0037,0.0000,5.4034,-0.0831
19.1900,0.2789,0.0037,0.0000,5.4042,-0.0844
19.2000,0.2789,0.0037,0.0000,5.4051,-0.0858
19.2100,0.2789,0.0037,0.0000,5.4059,-0.0851
19.2200,0.2789,0.0037,0.0000,5.4068,-0.0847
19.2300,0.2789,0.0037,0.0000,5.4076,-0.0842
19.2400,0.2789,0.0037,0.0000,5.4084,-0.0839
19.2500,0.2789,0.0037,0.0000,5.4093,-0.0836
19.2600,0.2789,0.0037,0.0000,5.4101,-0.0832
19.2700,0.2789,0.0037,0.0000,5.4109,-0.0830
19.2800,0.2789,0.0037,0.0000,5.4118,-0.0827
19.2900,0.2789,0.0037,0.0000,5.4126,-0.0824
19.3000,0.2789,0.0037,0.0000,5.4134,-0.0823
19.3100,0.2789,0.0037,0.0000,5.4142,-0.0818
19.3200,0.2789,0.0037,0.0000,5.4151,-0.0818
19.3300,0.2789,0.0037,0.0000,5.4159,-0.0815
19.3400,0.2789,0.0037,0.0000,5.4167,-0.0812
19.3500,0.2789,0.0037,0.0000,5.4175,-0.0838
19.3600,0.2789,0.0037,0.0000,5.4184,-0.0837
19.3700,0.2789,0.0037,0.0000,5.4192,-0.0832
19.3800,0.2789,0.0037,0.0000,5.4200,-0.0827
19.3900,0.2789,0.0037,0.0000,5.4208,-0.0824
19.4000,0.2789,0.0037,0.0000,5.4217,-0.0821
19.4100,0.2789,0.0037,0.0000,5.4225,-0.0818
19.4200,0.2789,0.0037,0.0000,5.4233,-0.0815
19.4300,0.2789,0.0037,0.0000,5.4241,-0.0812
19.4400,0.2789,0.0037,0.0000,5.4249,-0.0812
19.4500,0.2789,0.0037,0.0000,5.4257,-0.0808
19.4600,0.2789,0.0037,0.0000,5.4265,-0.0806
19.4700,0.2789,0.0037,0.0000,5.4273,-0.0806
19.4800,0.2789,0.0037,0.0000,5.4281,-0.0801
19.4900,0.2789,0.0037,0.0000,5.4289,-0.0800
19.5000,0.2789,0.0037,0.0000,5.4297,-0.0800
19.5100,0.2789,0.0037,0.0000,5.4305,-0.0794
19.5200,0.2789,0.0037,0.0000,5.4313,-0.0793
19.5300,0.2789,0.0037,0.0000,5.4321,-0.0793
19.5400,0.2789,0.0037,0.0000,5.4329,-0.0789
19.5500,0.2789,0.0037,0.0000,5.4337,-0.0787
19.5600,0.2789,0.0037,0.0000,5.4345,-0.0786
19.5700,0.2789,0.0037,0.0000,5.4353,-0.0781
19.5800,0.2789,0.0037,0.0000,5.4360,-0.0782
19.5900,0.2789,0.0037,0.0000,5.4368,-0.0778
19.6000,0.2789,0.0037,0.0000,5.4376,-0.0775
19.6100,0.2789,0.0037,0.0000,5.4384,-0.0774
19.6200,0.2789,0.0037,0.0000,5.4391,-0.0770
19.6300,0.2789,0.0037,0.0000,5.4399,-0.0769
19.6400,0.2789,0.0037,0.0000,5.4407,-0.0766
19.6500,0.2789,0.0037,0.0000,5.4414,-0.0763
19.6600,0.2789,0.0037,0.0000,5.4422,-0.0763
19.6700,0.2789,0.0037,0.0000,5.4430,-0.0758
19.6800,0.2789,0.0037,0.0000,5.4437,-0.0757
19.6900,0.2789,0.0037,0.0000,5.4445,-0.0754
19.7000,0.2789,0.0037,0.0000,5.4452,-0.0751
19.7100,0.2789,0.0037,0.0000,5.4460,-0.0751
19.7200,0.2789,0.0037,0.0000,5.4467,-0.0746
19.7300,0.2789,0.0037,0.0000,5.4475,-0.0745
19.7400,0.2789,0.0037,0.0000,5.4482,-0.0742
19.7500,0.2789,0.0037,0.0000,5.4489,-0.0739
19.7600,0.2789,0.0037,0.0000,5.4497,-0.0739
19.7700,0.2789,0.0037,0.0000,5.4504,-0.0735
19.7800,0.2789,0.0037,0.0000,5.4512,-0.0732
19.7900,0.2789,0.0037,0.0000,5.4519,-0.0732
19.8000,0.2789,0.0037,0.0000,5.4526,-0.0727
19.8100,0.2789,0.0037,0.0000,5.4533,-0.0726
19.8200,0.2789,0.0037,0.0000,5.4541,-0.0725
19.8300,0.2789,0.0037,0.0000,5.4548,-0.0721
19.8400,0.2789,0.0037,0.0000,5.4555,-0.0720
19.8500,0.2789,0.0037,0.0000,5.4562,-0.0717
19.8600,0.2789,0.0037,0.0000,5.4569,-0.0714
19.8700,0.2789,0.0037,0.0000,5.4576,-0.0714
19.8800,0.2789,0.0037,0.0000,5.4584,-0.0708
19.8900,0.2789,0.0037,0.0000,5.4591,-0.0708
19.9000,0.2789,0.0037,0.0000,5.4598,-0.0705
19.9100,0.2789,0.0037,0.0000,5.4605,-0.0702
19.9200,0.2789,0.0037,0.0000,5.4612,-0.0702
19.9300,0.2789,0.0037,0.0000,5.4619,-0.0697
19.9400,0.2789,0.0037,0.0000,5.4626,-0.0696
19.9500,0.2789,0.0037,0.0000,5.4633,-0.0695
19.9600,0.2789,0.0037,0.0000,5.4639,-0.0690
19.9700,0.2789,0.0037,0.0000,5.4646,-0.0690
19.9800,0.2789,0.0037,0.0000,5.4653,-0.0688
19.9900,0.2789,0.0037,0.0000,5.4660,-0.0684
20.0000,0.2789,0.0037,0.0000,5.4667,-0.0683
20.0100,0.2789,0.0037,0.0000,5.4674,-0.0681
20.0200,0.2789,0.0037,0.0000,5.4681,-0.0677
20.0300,0.2789,0.0037,0.0000,5.4687,-0.0678
20.0400,0.2789,0.0037,0.0000,5.4694,-0.0673
20.0500,0.2789,0.0037,0.0000,5.4701,-0.0671
20.0600,0.2789,0.0037,0.0000,5.4707,-0.0671
20.0700,0.2789,0.0037,0.0000,5.4714,-0.0666
20.0800,0.2789,0.0037,0.0000,5.4721,-0.0665
20.0900,0.2789,0.0037,0.0000,5.4727,-0.0665
20.1000,0.2789,0.0037,0.0000,5.4734,-0.0659
20.1100,0.2789,0.0037,0.0000,5.4741,-0.0659
20.1200,0.2789,0.0037,0.0000,5.4747,-0.0659
20.1300,0.2789,0.0037,0.0000,5.4754,-0.0653
20.1400,0.2789,0.0037,0.0000,5.4760,-0.0653
20.1500,0.2789,0.0037,0.0000,5.4767,-0.0652
20.1600,0.2789,0.0037,0.0000,5.4773,-0.0647
20.1700,0.2789,0.0037,0.0000,5.4780,-0.0647
20.1800,0.2789,0.0037,0.0000,5.4786,-0.0645
20.1900,0.2789,0.0037,0.0000,5.4793,-0.0641
20.2000,0.2789,0.0037,0.0000,5.4799,-0.0641
20.2100,0.2789,0.0037,0.0000,5.4805,-0.0639
20.2200,0.2789,0.0037,0.0000,5.4812,-0.0635
20.2300,0.2789,0.0037,0.0000,5.4818,-0.0635
20.2400,0.2789,0.0037,0.0000,5.4824,-0.0633
20.2500,0.2789,0.0037,0.0000,5.4831,-0.0628
20.2600,0.2789,0.0037,0.0000,5.4837,-0.0629
20.2700,0.2789,0.0037,0.0000,5.4843,-0.0626
20.2800,0.2789,0.0037,0.0000,5.4849,-0.0623
20.2900,0.2789,0.0037,0.0000,5.4856,-0.0610
20.3000,0.2789,0.0037,0.0000,5.4862,-0.0610
20.3100,0.2789,0.0037,0.0000,5.4868,-0.0606
20.3200,0.2789,0.0037,0.0000,5.4874,-0.0604
20.3300,0.2789,0.0037,0.0000,5.4880,-0.0604
20.3400,0.2789,0.0037,0.0000,5.4886,-0.0600
20.3500,0.2789,0.0037,0.0000,5.4892,-0.0598
20.3600,0.2789,0.0037,0.0000,5.4898,-0.0598
20.3700,0.2789,0.0037,0.0000,5.4904,-0.0597
20.3800,0.2789,0.0037,0.0000,5.4910,-0.0592
20.3900,0.2789,0.0037,0.0000,5.4916,-0.0592
20.4000,0.2789,0.0037,0.0000,5.4922,-0.0592
20.4100,0.2789,0.0037,0.0000,5.4927,-0.0587
20.4200,0.2789,0.0037,0.0000,5.4933,-0.0586
20.4300,0.2789,0.0037,0.0000,5.4939,-0.0586
20.4400,0.2789,0.0037,0.0000,5.4945,-0.0585
20.4500,0.2789,0.0037,0.0000,5.4951,-0.0581
20.4600,0.2789,0.0037,0.0000,5.4957,-0.0580
20.4700,0.2789,0.0037,0.0000,5.4962,-0.0580
20.4800,0.2789,0.0037,0.0000,5.4968,-0.0576
20.4900,0.2789,0.0037,0.0000,5.4974,-0.0574
20.5000,0.2789,0.0037,0.0000,5.4980,-0.0574
20.5100,0.2789,0.0037,0.0000,5.4985,-0.0572
20.5200,0.2789,0.0037,0.0000,5.4991,-0.0567
20.5300,0.2789,0.0037,0.0000,5.4997,-0.0567
20.5400,0.2789,0.0037,0.0000,5.5002,-0.0568
20.5500,0.2789,0.0037,0.0000,5.5008,-0.0563
20.5600,0.2789,0.0037,0.0000,5.5014,-0.0562
20.5700,0.2789,0.0037,0.0000,5.5019,-0.0561
20.5800,0.2789,0.0037,0.0000,5.5025,-0.0559
20.5900,0.2789,0.0037,0.0000,5.5030,-0.0555
20.6000,0.2789,0.0037,0.0000,5.5036,-0.0556
20.6100,0.2789,0.0037,0.0000,5.5041,-0.0556
20.6200,0.2789,0.0037,0.0000,5.5047,-0.0551
20.6300,0.2789,0.0037,0.0000,5.5052,-0.0549
20.6400,0.2789,0.0037,0.0000,5.5058,-0.0549
20.6500,0.2789,0.0037,0.0000,5.5063,-0.0547
20.6600,0.2789,0.0037,0.0000,5.5069,-0.0543
20.6700,0.2789,0.0037,0.0000,5.5074,-0.0543
20.6800,0.2789,0.0037,0.0000,5.5080,-0.0543
20.6900,0.2789,0.0037,0.0000,5.5085,-0.0538
20.7000,0.2789,0.0037,0.0000,5.5090,-0.0537
20.7100,0.2789,0.0037,0.0000,5.5096,-0.0537
20.7200,0.2789,0.0037,0.0000,5.5101,-0.0535
20.7300,0.2789,0.0037,0.0000,5.5107,-0.0531
20.7400,0.2789,0.0037,0.0000,5.5112,-0.0531
20.7500,0.2789,0.0037,0.0000,5.5117,-0.0531
20.7600,0.2789,0.0037,0.0000,5.5122,-0.0527
20.7700,0.2789,0.0037,0.0000,5.5128,-0.0525
20.7800,0.2789,0.0037,0.0000,5.5133,-0.0525
20.7900,0.2789,0.0037,0.0000,5.5138,-0.0525
20.8000,0.2789,0.0037,0.0000,5.5143,-0.0519
20.8100,0.2789,0.0037,0.0000,5.5149,-0.0519
20.8200,0.2789,0.0037,0.0000,5.5154,-0.0519
20.8300,0.2789,0.0037,0.0000,5.5159,-0.0515
20.8400,0.2789,0.0037,0.0000,5.5164,-0.0507
20.8500,0.2789,0.0037,0.0000,5.5169,-0.0506
20.8600,0.2789,0.0037,0.0000,5.5174,-0.0507
20.8700,0.2789,0.0037,0.0000,5.5179,-0.0506
20.8800,0.2789,0.0037,0.0000,5.5184,-0.0502
20.8900,0.2789,0.0037,0.0000,5.5189,-0.0501
20.9000,0.2789,0.0037,0.0000,5.5194,-0.0501
20.9100,0.2789,0.0037,0.0000,5.5199,-0.0500
20.9200,0.2789,0.0037,0.0000,5.5204,-0.0495
20.9300,0.2789,0.0037,0.0000,5.5209,-0.0494
20.9400,0.2789,0.0037,0.0000,5.5214,-0.0494
20.9500,0.2789,0.0037,0.0000,5.5219,-0.0494
20.9600,0.2789,0.0037,0.0000,5.5224,-0.0488
20.9700,0.2789,0.0037,0.0000,5.5229,-0.0488
20.9800,0.2789,0.0037,0.0000,5.5234,-0.0488
20.9900,0.2789,0.0037,0.0000,5.5238,-0.0486
21.0000,0.2789,0.0037,0.0000,5.5243,-0.0482
21.0100,0.2789,0.0037,0.0000,5.5248,-0.0483
21.0200,0.2789,0.0037,0.0000,5.5253,-0.0482
21.0300,0.2789,0.0037,0.0000,5.5258,-0.0479
21.0400,0.2789,0.0037,0.0000,5.5262,-0.0476
21.0500,0.2789,0.0037,0.0000,5.5267,-0.0473
21.0600,0.2789,0.0037,0.0000,5.5272,-0.0464
21.0700,0.2789,0.0037,0.0000,5.5276,-0.0464
21.0800,0.2789,0.0037,0.0000,5.5281,-0.0459
21.0900,0.2789,0.0037,0.0000,5.5286,-0.0458
21.1000,0.2789,0.0037,0.0000,5.5290,-0.0458
21.1100,0.2789,0.0037,0.0000,5.5295,-0.0457
21.1200,0.2789,0.0037,0.0000,5.5299,-0.0453
21.1300,0.2789,0.0037,0.0000,5.5304,-0.0452
21.1400,0.2789,0.0037,0.0000,5.5308,-0.0452
21.1500,0.2789,0.0037,0.0000,5.5313,-0.0452
21.1600,0.2789,0.0037,0.0000,5.5317,-0.0451
21.1700,0.2789,0.0037,0.0000,5.5322,-0.0446
21.1800,0.2789,0.0037,0.0000,5.5326,-0.0445
21.1900,0.2789,0.0037,0.0000,5.5331,-0.0446
21.2000,0.2789,0.0037,0.0000,5.5335,-0.0445
21.2100,0.2789,0.0037,0.0000,5.5340,-0.0443
21.2200,0.2789,0.0037,0.0000,5.5344,-0.0440
21.2300,0.2789,0.0037,0.0000,5.5348,-0.0439
21.2400,0.2789,0.0037,0.0000,5.5353,-0.0440
21.2500,0.2789,0.0037,0.0000,5.5357,-0.0439
21.2600,0.2789,0.0037,0.0000,5.5362,-0.0435
21.2700,0.2789,0.0037,0.0000,5.5366,-0.0433
21.2800,0.2789,0.0037,0.0000,5.5370,-0.0433
21.2900,0.2789,0.0037,0.0000,5.5375,-0.0433
21.3000,0.2789,0.0037,0.0000,5.5379,-0.0432
21.3100,0.2789,0.0037,0.0000,5.5383,-0.0427
21.3200,0.2789,0.0037,0.0000,5.5387,-0.0427
21.3300,0.2789,0.0037,0.0000,5.5392,-0.0427
21.3400,0.2789,0.0037,0.0000,5.5396,-0.0427
21.3500,0.2789,0.0037,0.0000,5.5400,-0.0423
21.3600,0.2789,0.0037,0.0000,5.5404,-0.0421
21.3700,0.2789,0.0037,0.0000,5.5409,-0.0421
21.3800,0.2789,0.0037,0.0000,5.5413,-0.0421
21.3900,0.2789,0.0037,0.0000,5.5417,-0.0420
21.4000,0.2789,0.0037,0.0000,5.5421,-0.0415
21.4100,0.2789,0.0037,0.0000,5.5425,-0.0415
21.4200,0.2789,0.0037,0.0000,5.5429,-0.0415
21.4300,0.2789,0.0037,0.0000,5.5434,-0.0415
21.4400,0.2789,0.0037,0.0000,5.5438,-0.0412
21.4500,0.2789,0.0037,0.0000,5.5442,-0.0409
21.4600,0.2789,0.0037,0.0000,5.5446,-0.0409
21.4700,0.2789,0.0037,0.0000,5.5450,-0.0409
21.4800,0.2789,0.0037,0.0000,5.5454,-0.0409
21.4900,0.2789,0.0037,0.0000,5.5458,-0.0405
21.5000,0.2789,0.0037,0.0000,5.5462,-0.0403
21.5100,0.2789,0.0037,0.0000,5.5466,-0.0403
21.5200,0.2789,0.0037,0.0000,5.5470,-0.0402
21.5300,0.2789,0.0037,0.0000,5.5474,-0.0402
21.5400,0.2789,0.0037,0.0000,5.5478,-0.0397
21.5500,0.2789,0.0037,0.0000,5.5482,-0.0397
21.5600,0.2789,0.0037,0.0000,5.5486,-0.0397
21.5700,0.2789,0.0037,0.0000,5.5490,-0.0397
21.5800,0.2789,0.0037,0.0000,5.5494,-0.0395
21.5900,0.2789,0.0037,0.0000,5.5498,-0.0391
21.6000,0.2789,0.0037,0.0000,5.5502,-0.0385
21.6100,0.2789,0.0037,0.0000,5.5506,-0.0385
21.6200,0.2789,0.0037,0.0000,5.5510,-0.0384
21.6300,0.2789,0.0037,0.0000,5.5513,-0.0385
21.6400,0.2789,0.0037,0.0000,5.5517,-0.0384
21.6500,0.2789,0.0037,0.0000,5.5521,-0.0379
21.6600,0.2789,0.0037,0.0000,5.5525,-0.0379
21.6700,0.2789,0.0037,0.0000,5.5529,-0.0378
21.6800,0.2789,0.0037,0.0000,5.5532,-0.0379
21.6900,0.2789,0.0037,0.0000,5.5536,-0.0378
21.7000,0.2789,0.0037,0.0000,5.5540,-0.0374
21.7100,0.2789,0.0037,0.0000,5.5544,-0.0372
21.7200,0.2789,0.0037,0.0000,5.5547,-0.0372
21.7300,0.2789,0.0037,0.0000,5.5551,-0.0372
21.7400,0.2789,0.0037,0.0000,5.5555,-0.0371
21.7500,0.2789,0.0037,0.0000,5.5558,-0.0366
21.7600,0.2789,0.0037,0.0000,5.5562,-0.0366
21.7700,0.2789,0.0037,0.0000,5.5566,-0.0366
21.7800,0.2789,0.0037,0.0000,5.5569,-0.0366
21.7900,0.2789,0.0037,0.0000,5.5573,-0.0365
21.8000,0.2789,0.0037,0.0000,5.5577,-0.0360
21.8100,0.2789,0.0037,0.0000,5.5580,-0.0360
21.8200,0.2789,0.0037,0.0000,5.5584,-0.0360
21.8300,0.2789,0.0037,0.0000,5.5587,-0.0360
21.8400,0.2789,0.0037,0.0000,5.5591,-0.0360
21.8500,0.2789,0.0037,0.0000,5.5595,-0.0354
21.8600,0.2789,0.0037,0.0000,5.5598,-0.0354
21.8700,0.2789,0.0037,0.0000,5.5602,-0.0354
21.8800,0.2789,0.0037,0.0000,5.5605,-0.0354
21.8900,0.2789,0.0037,0.0000,5.5609,-0.0353
21.9000,0.2789,0.0037,0.0000,5.5612,-0.0350
21.9100,0.2789,0.0037,0.0000,5.5616,-0.0348
21.9200,0.2789,0.0037,0.0000,5.5619,-0.0348
21.9300,0.2789,0.0037,0.0000,5.5623,-0.0348
21.9400,0.2789,0.0037,0.0000,5.5626,-0.0348
21.9500,0.2789,0.0037,0.0000,5.5630,-0.0346
21.9600,0.2789,0.0037,0.0000,5.5633,-0.0342
21.9700,0.2789,0.0037,0.0000,5.5636,-0.0341
21.9800,0.2789,0.0037,0.0000,5.5640,-0.0342
21.9900,0.2789,0.0037,0.0000,5.5643,-0.0342
22.0000,0.2789,0.0037,0.0000,5.5647,-0.0341
22.0100,0.2789,0.0037,0.0000,5.5650,-0.0337
22.0200,0.2789,0.0037,0.0000,5.5653,-0.0336
22.0300,0.2789,0.0037,0.0000,5.5657,-0.0336
22.0400,0.2789,0.0037,0.0000,5.5660,-0.0336
22.0500,0.2789,0.0037,0.0000,5.5664,-0.0334
22.0600,0.2789,0.0037,0.0000,5.5667,-0.0329
22.0700,0.2789,0.0037,0.0000,5.5670,-0.0325
22.0800,0.2789,0.0037,0.0000,5.5673,-0.0324
22.0900,0.2789,0.0037,0.0000,5.5677,-0.0323
22.1000,0.2789,0.0037,0.0000,5.5680,-0.0324
22.1100,0.2789,0.0037,0.0000,5.5683,-0.0323
22.1200,0.2789,0.0037,0.0000,5.5686,-0.0323
22.1300,0.2789,0.0037,0.0000,5.5689,-0.0320
22.1400,0.2789,0.0037,0.0000,5.5693,-0.0318
22.1500,0.2789,0.0037,0.0000,5.5696,-0.0317
22.1600,0.2789,0.0037,0.0000,5.5699,-0.0318
22.1700,0.2789,0.0037,0.0000,5.5702,-0.0318
22.1800,0.2789,0.0037,0.0000,5.5705,-0.0317
22.1900,0.2789,0.0037,0.0000,5.5708,-0.0314
22.2000,0.2789,0.0037,0.0000,5.5712,-0.0311
22.2100,0.2789,0.0037,0.0000,5.5715,-0.0311
22.2200,0.2789,0.0037,0.0000,5.5718,-0.0311
22.2300,0.2789,0.0037,0.0000,5.5721,-0.0311
22.2400,0.2789,0.0037,0.0000,5.5724,-0.0311
22.2500,0.2789,0.0037,0.0000,5.5727,-0.0309
22.2600,0.2789,0.0037,0.0000,5.5730,-0.0305
22.2700,0.2789,0.0037,0.0000,5.5733,-0.0305
22.2800,0.2789,0.0037,0.0000,5.5736,-0.0305
22.2900,0.2789,0.0037,0.0000,5.5739,-0.0305
22.3000,0.2789,0.0037,0.0000,5.5742,-0.0305
22.3100,0.2789,0.0037,0.0000,5.5745,-0.0305
22.3200,0.2789,0.0037,0.0000,5.5748,-0.0299
22.3300,0.2789,0.0037,0.0000,5.5751,-0.0299
22.3400,0.2789,0.0037,0.0000,5.5754,-0.0299
22.3500,0.2789,0.0037,0.0000,5.5757,-0.0299
22.3600,0.2789,0.0037,0.0000,5.5760,-0.0299
22.3700,0.2789,0.0037,0.0000,5.5763,-0.0299
22.3800,0.2789,0.0037,0.0000,5.5766,-0.0296
22.3900,0.2789,0.0037,0.0000,5.5769,-0.0293
22.4000,0.2789,0.0037,0.0000,5.5772,-0.0293
22.4100,0.2789,0.0037,0.0000,5.5775,-0.0293
22.4200,0.2789,0.0037,0.0000,5.5778,-0.0293
22.4300,0.2789,0.0037,0.0000,5.5781,-0.0293
22.4400,0.2789,0.0037,0.0000,5.5784,-0.0292
22.4500,0.2789,0.0037,0.0000,5.5787,-0.0288
22.4600,0.2789,0.0037,0.0000,5.5790,-0.0287
22.4700,0.2789,0.0037,0.0000,5.5792,-0.0287
22.4800,0.2789,0.0037,0.0000,5.5795,-0.0287
22.4900,0.2789,0.0037,0.0000,5.5798,-0.0287
22.5000,0.2789,0.0037,0.0000,5.5801,-0.0287
22.5100,0.2789,0.0037,0.0000,5.5804,-0.0285
22.5200,0.2789,0.0037,0.0000,5.5807,-0.0281
22.5300,0.2789,0.0037,0.0000,5.5810,-0.0280
22.5400,0.2789,0.0037,0.0000,5.5812,-0.0281
22.5500,0.2789,0.0037,0.0000,5.5815,-0.0281
22.5600,0.2789,0.0037,0.0000,5.5818,-0.0281
22.5700,0.2789,0.0037,0.0000,5.5821,-0.0281
22.5800,0.2789,0.0037,0.0000,5.5824,-0.0276
22.5900,0.2789,0.0037,0.0000,5.5826,-0.0276
22.6000,0.2789,0.0037,0.0000,5.5829,-0.0275
22.6100,0.2789,0.0037,0.0000,5.5832,-0.0275
22.6200,0.2789,0.0037,0.0000,5.5835,-0.0275
22.6300,0.2789,0.0037,0.0000,5.5837,-0.0275
22.6400,0.2789,0.0037,0.0000,5.5840,-0.0274
22.6500,0.2789,0.0037,0.0000,5.5843,-0.0270
22.6600,0.2789,0.0037,0.0000,5.5845,-0.0269
22.6700,0.2789,0.0037,0.0000,5.5848,-0.0268
22.6800,0.2789,0.0037,0.0000,5.5851,-0.0268
22.6900,0.2789,0.0037,0.0000,5.5853,-0.0268
22.7000,0.2789,0.0037,0.0000,5.5856,-0.0268
22.7100,0.2789,0.0037,0.0000,5.5859,-0.0269
22.7200,0.2789,0.0037,0.0000,5.5862,-0.0264
22.7300,0.2789,0.0037,0.0000,5.5864,-0.0263
22.7400,0.2789,0.0037,0.0000,5.5867,-0.0262
22.7500,0.2789,0.0037,0.0000,5.5869,-0.0262
22.7600,0.2789,0.0037,0.0000,5.5872,-0.0263
22.7700,0.2789,0.0037,0.0000,5.5875,-0.0262
22.7800,0.2789,0.0037,0.0000,5.5877,-0.0263
22.7900,0.2789,0.0037,0.0000,5.5880,-0.0260
22.8000,0.2789,0.0037,0.0000,5.5882,-0.0257
22.8100,0.2789,0.0037,0.0000,5.5885,-0.0256
22.8200,0.2789,0.0037,0.0000,5.5888,-0.0257
22.8300,0.2789,0.0037,0.0000,5.5890,-0.0257
22.8400,0.2789,0.0037,0.0000,5.5893,-0.0256
22.8500,0.2789,0.0037,0.0000,5.5895,-0.0257
22.8600,0.2789,0.0037,0.0000,5.5898,-0.0255
22.8700,0.2789,0.0037,0.0000,5.5900,-0.0251
22.8800,0.2789,0.0037,0.0000,5.5903,-0.0250
22.8900,0.2789,0.0037,0.0000,5.5905,-0.0250
22.9000,0.2789,0.0037,0.0000,5.5908,-0.0250
22.9100,0.2789,0.0037,0.0000,5.5910,-0.0250
22.9200,0.2789,0.0037,0.0000,5.5913,-0.0250
22.9300,0.2789,0.0037,0.0000,5.5915,-0.0250
22.9400,0.2789,0.0037,0.0000,5.5918,-0.0247
22.9500,0.2789,0.0037,0.0000,5.5920,-0.0244
22.9600,0.2789,0.0037,0.0000,5.5923,-0.0244
22.9700,0.2789,0.0037,0.0000,5.5925,-0.0244
22.9800,0.2789,0.0037,0.0000,5.5928,-0.0244
22.9900,0.2789,0.0037,0.0000,5.5930,-0.0244
23.0000,0.2789,0.0037,0.0000,5.5932,-0.0244
23.0100,0.2789,0.0037,0.0000,5.5935,-0.0244
23.0200,0.2789,0.0037,0.0000,5.5937,-0.0240
23.0300,0.2789,0.0037,0.0000,5.5940,-0.0238
23.0400,0.2789,0.0037,0.0000,5.5942,-0.0238
23.0500,0.2789,0.0037,0.0000,5.5944,-0.0238
23.0600,0.2789,0.0037,0.0000,5.5947,-0.0238
23.0700,0.2789,0.0037,0.0000,5.5949,-0.0238
23.0800,0.2789,0.0037,0.0000,5.5952,-0.0238
23.0900,0.2789,0.0037,0.0000,5.5954,-0.0237
23.1000,0.2789,0.0037,0.0000,5.5956,-0.0234
23.1100,0.2789,0.0037,0.0000,5.5959,-0.0232
23.1200,0.2789,0.0037,0.0000,5.5961,-0.0232
23.1300,0.2789,0.0037,0.0000,5.5963,-0.0232
23.1400,0.2789,0.0037,0.0000,5.5966,-0.0232
23.1500,0.2789,0.0037,0.0000,5.5968,-0.0232
23.1600,0.2789,0.0037,0.0000,5.5970,-0.0232
23.1700,0.2789,0.0037,0.0000,5.5973,-0.0232
23.1800,0.2789,0.0037,0.0000,5.5975,-0.0230
23.1900,0.2789,0.0037,0.0000,5.5977,-0.0226
23.2000,0.2789,0.0037,0.0000,5.5979,-0.0226
23.2100,0.2789,0.0037,0.0000,5.5982,-0.0226
23.2200,0.2789,0.0037,0.0000,5.5984,-0.0226
23.2300,0.2789,0.0037,0.0000,5.5986,-0.0226
23.2400,0.2789,0.0037,0.0000,5.5988,-0.0226
23.2500,0.2789,0.0037,0.0000,5.5991,-0.0226
23.2600,0.2789,0.0037,0.0000,5.5993,-0.0225
23.2700,0.2789,0.0037,0.0000,5.5995,-0.0221
23.2800,0.2789,0.0037,0.0000,5.5997,-0.0220
23.2900,0.2789,0.0037,0.0000,5.5999,-0.0220
23.3000,0.2789,0.0037,0.0000,5.6002,-0.0220
23.3100,0.2789,0.0037,0.0000,5.6004,-0.0220
23.3200,0.2789,0.0037,0.0000,5.6006,-0.0219
23.3300,0.2789,0.0037,0.0000,5.6008,-0.0220
23.3400,0.2789,0.0037,0.0000,5.6010,-0.0220
23.3500,0.2789,0.0037,0.0000,5.6013,-0.0216
23.3600,0.2789,0.0037,0.0000,5.6015,-0.0214
23.3700,0.2789,0.0037,0.0000,5.6017,-0.0214
23.3800,0.2789,0.0037,0.0000,5.6019,-0.0214
23.3900,0.2789,0.0037,0.0000,5.6021,-0.0214
23.4000,0.2789,0.0037,0.0000,5.6023,-0.0214
23.4100,0.2789,0.0037,0.0000,5.6025,-0.0214
23.4200,0.2789,0.0037,0.0000,5.6028,-0.0214
23.4300,0.2789,0.0037,0.0000,5.6030,-0.0214
23.4400,0.2789,0.0037,0.0000,5.6032,-0.0211
23.4500,0.2789,0.0037,0.0000,5.6034,-0.0207
23.4600,0.2789,0.0037,0.0000,5.6036,-0.0208
23.4700,0.2789,0.0037,0.0000,5.6038,-0.0207
23.4800,0.2789,0.0037,0.0000,5.6040,-0.0207
23.4900,0.2789,0.0037,0.0000,5.6042,-0.0207
23.5000,0.2789,0.0037,0.0000,5.6044,-0.0207
23.5100,0.2789,0.0037,0.0000,5.6046,-0.0208
23.5200,0.2789,0.0037,0.0000,5.6048,-0.0207
23.5300,0.2789,0.0037,0.0000,5.6050,-0.0205
23.5400,0.2789,0.0037,0.0000,5.6052,-0.0201
23.5500,0.2789,0.0037,0.0000,5.6055,-0.0202
23.5600,0.2789,0.0037,0.0000,5.6057,-0.0201
23.5700,0.2789,0.0037,0.0000,5.6059,-0.0202
23.5800,0.2789,0.0037,0.0000,5.6061,-0.0201
23.5900,0.2789,0.0037,0.0000,5.6063,-0.0201
23.6000,0.2789,0.0037,0.0000,5.6065,-0.0202
23.6100,0.2789,0.0037,0.0000,5.6067,-0.0201
23.6200,0.2789,0.0037,0.0000,5.6069,-0.0202
23.6300,0.2789,0.0037,0.0000,5.6071,-0.0196
23.6400,0.2789,0.0037,0.0000,5.6073,-0.0196
23.6500,0.2789,0.0037,0.0000,5.6074,-0.0196
23.6600,0.2789,0.0037,0.0000,5.6076,-0.0195
23.6700,0.2789,0.0037,0.0000,5.6078,-0.0196
23.6800,0.2789,0.0037,0.0000,5.6080,-0.0195
23.6900,0.2789,0.0037,0.0000,5.6082,-0.0196
23.7000,0.2789,0.0037,0.0000,5.6084,-0.0196
23.7100,0.2789,0.0037,0.0000,5.6086,-0.0195
23.7200,0.2789,0.0037,0.0000,5.6088,-0.0193
23.7300,0.2789,0.0037,0.0000,5.6090,-0.0190
23.7400,0.2789,0.0037,0.0000,5.6092,-0.0189
23.7500,0.2789,0.0037,0.0000,5.6094,-0.0189
23.7600,0.2789,0.0037,0.0000,5.6096,-0.0189
23.7700,0.2789,0.0037,0.0000,5.6098,-0.0189
23.7800,0.2789,0.0037,0.0000,5.6099,-0.0189
23.7900,0.2789,0.0037,0.0000,5.6101,-0.0189
23.8000,0.2789,0.0037,0.0000,5.6103,-0.0189
23.8100,0.2789,0.0037,0.0000,5.6105,-0.0189
23.8200,0.2789,0.0037,0.0000,5.6107,-0.0186
23.8300,0.2789,0.0037,0.0000,5.6109,-0.0185
23.8400,0.2789,0.0037,0.0000,5.6111,-0.0183
23.8500,0.2789,0.0037,0.0000,5.6113,-0.0183
23.8600,0.2789,0.0037,0.0000,5.6114,-0.0183
23.8700,0.2789,0.0037,0.0000,5.6116,-0.0183
23.8800,0.2789,0.0037,0.0000,5.6118,-0.0183
23.8900,0.2789,0.0037,0.0000,5.6120,-0.0183
23.9000,0.2789,0.0037,0.0000,5.6122,-0.0183
23.9100,0.2789,0.0037,0.0000,5.6124,-0.0183
23.9200,0.2789,0.0037,0.0000,5.6125,-0.0182
23.9300,0.2789,0.0037,0.0000,5.6127,-0.0179
23.9400,0.2789,0.0037,0.0000,5.6129,-0.0177
23.9500,0.2789,0.0037,0.0000,5.6131,-0.0177
23.9600,0.2789,0.0037,0.0000,5.6132,-0.0177
23.9700,0.2789,0.0037,0.0000,5.6134,-0.0177
23.9800,0.2789,0.0037,0.0000,5.6136,-0.0177
23.9900,0.2789,0.0037,0.0000,5.6138,-0.0177
24.0000,0.2789,0.0037,0.0000,5.6140,-0.0177
24.0100,0.2789,0.0037,0.0000,5.6141,-0.0177
24.0200,0.2789,0.0037,0.0000,5.6143,-0.0177
24.0300,0.2789,0.0037,0.0000,5.6145,-0.0175
24.0400,0.2789,0.0037,0.0000,5.6147,-0.0173
24.0500,0.2789,0.0037,0.0000,5.6148,-0.0171
24.0600,0.2789,0.0037,0.0000,5.6150,-0.0171
24.0700,0.2789,0.0037,0.0000,5.6152,-0.0171
24.0800,0.2789,0.0037,0.0000,5.6153,-0.0171
24.0900,0.2789,0.0037,0.0000,5.6155,-0.0171
24.1000,0.2789,0.0037,0.0000,5.6157,-0.0171
24.1100,0.2789,0.0037,0.0000,5.6159,-0.0171
24.1200,0.2789,0.0037,0.0000,5.6160,-0.0171
24.1300,0.2789,0.0037,0.0000,5.6162,-0.0170
24.1400,0.2789,0.0037,0.0000,5.6164,-0.0170
24.1500,0.2789,0.0037,0.0000,5.6165,-0.0166
24.1600,0.2789,0.0037,0.0000,5.6167,-0.0165
24.1700,0.2789,0.0037,0.0000,5.6169,-0.0165
24.1800,0.2789,0.0037,0.0000,5.6170,-0.0165
24.1900,0.2789,0.0037,0.0000,5.6172,-0.0165
24.2000,0.2789,0.0037,0.0000,5.6174,-0.0165
24.2100,0.2789,0.0037,0.0000,5.6175,-0.0165
24.2200,0.2789,0.0037,0.0000,5.6177,-0.0165
24.2300,0.2774,0.0021,0.0000,5.6178,-0.0165
24.2400,0.2774,0.0021,0.0000,5.6180,-0.0157
24.2500,0.2774,0.0021,0.0000,5.6181,-0.0142
24.2600,0.2774,0.0021,0.0000,5.6183,-0.0130
24.2700,0.2774,0.0021,0.0000,5.6184,-0.0118
24.2800,0.2774,0.0021,0.0000,5.6185,-0.0107
24.2900,0.2774,0.0021,0.0000,5.6186,-0.0099
24.3000,0.2774,0.0021,0.0000,5.6187,-0.0090
24.3100,0.2774,0.0021,0.0000,5.6188,-0.0083
24.3200,0.2774,0.0021,0.0000,5.6188,-0.0076
24.3300,0.2774,0.0021,0.0000,5.6189,-0.0070
24.3400,0.2774,0.0021,0.0000,5.6190,-0.0064
24.3500,0.2774,0.0021,0.0000,5.6190,-0.0061
24.3600,0.2774,0.0021,0.0000,5.6191,-0.0055
24.3700,0.2774,0.0021,0.0000,5.6192,-0.0053
24.3800,0.2774,0.0021,0.0000,5.6192,-0.0049
24.3900,0.2774,0.0021,0.0000,5.6192,-0.0045
24.4000,0.2774,0.0021,0.0000,5.6193,-0.0043
24.4100,0.2774,0.0021,0.0000,5.6193,-0.0042
24.4200,0.2774,0.0021,0.0000,5.6194,-0.0037
24.4300,0.2774,0.0021,0.0000,5.6194,-0.0037
24.4400,0.2774,0.0021,0.0000,5.6194,-0.0037
24.4500,0.2774,0.0021,0.0000,5.6195,-0.0032
24.4600,0.2774,0.0021,0.0000,5.6195,-0.0031
24.4700,0.2774,0.0021,0.0000,5.6195,-0.0031
24.4800,0.2774,0.0021,0.0000,5.6196,-0.0031
24.4900,0.2774,0.0021,0.0000,5.6196,-0.0031
24.5000,0.2774,0.0021,0.0000,5.6196,-0.0027
24.5100,0.2774,0.0021,0.0000,5.6196,-0.0024
24.5200,0.2774,0.0021,0.0000,5.6197,-0.0025
24.5300,0.2774,0.0021,0.0000,5.6197,-0.0024
24.5400,0.2774,0.0021,0.0000,5.6197,-0.0024
24.5500,0.2774,0.0021,0.0000,5.6197,-0.0024
24.5600,0.2774,0.0021,0.0000,5.6198,-0.0024
24.5700,0.2774,0.0021,0.0000,5.6198,-0.0025
24.5800,0.2774,0.0021,0.0000,5.6198,-0.0024
24.5900,0.2774,0.0021,0.0000,5.6198,-0.0024
24.6000,0.2774,0.0021,0.0000,5.6199,-0.0022
24.6100,0.2774,0.0021,0.0000,5.6199,-0.0020
24.6200,0.2774,0.0021,0.0000,5.6199,-0.0020
24.6300,0.2774,0.0021,0.0000,5.6199,-0.0019
24.6400,0.2774,0.0021,0.0000,5.6199,-0.0018
24.6500,0.2774,0.0021,0.0000,5.6200,-0.0019
24.6600,0.2774,0.0021,0.0000,5.6200,-0.0018
24.6700,0.2774,0.0021,0.0000,5.6200,-0.0019
24.6800,0.2774,0.0021,0.0000,5.6200,-0.0019
24.6900,0.2774,0.0021,0.0000,5.6200,-0.0019
24.7000,0.2774,0.0021,0.0000,5.6201,-0.0018
24.7100,0.2774,0.0021,0.0000,5.6201,-0.0018
24.7200,0.2774,0.0021,0.0000,5.6201,-0.0019
24.7300,0.2774,0.0021,0.0000,5.6201,-0.0018
24.7400,0.2774,0.0021,0.0000,5.6201,-0.0019
24.7500,0.2774,0.0021,0.0000,5.6201,-0.0018
24.7600,0.2774,0.0021,0.0000,5.6202,-0.0018
24.7700,0.2774,0.0021,0.0000,5.6202,-0.0019
24.7800,0.2774,0.0021,0.0000,5.6202,-0.0018
24.7900,0.2774,0.0021,0.0000,5.6202,-0.0019
24.8000,0.2774,0.0021,0.0000,5.6202,-0.0018
24.8100,0.2774,0.0021,0.0000,5.6203,-0.0018
24.8200,0.2774,0.0021,0.0000,5.6203,-0.0019
24.8300,0.2774,0.0021,0.0000,5.6203,-0.0018
24.8400,0.2774,0.0021,0.0000,5.6203,-0.0019
24.8500,0.2774,0.0021,0.0000,5.6203,-0.0018
24.8600,0.2774,0.0021,0.0000,5.6203,-0.0018
24.8700,0.2774,0.0021,0.0000,5.6204,-0.0019
24.8800,0.2774,0.0021,0.0000,5.6204,-0.0018
24.8900,0.2774,0.0021,0.0000,5.6204,-0.0019
24.9000,0.2774,0.0021,0.0000,5.6204,-0.0018
24.9100,0.2774,0.0021,0.0000,5.6204,-0.0018
24.9200,0.2774,0.0021,0.0000,5.6205,-0.0019
24.9300,0.2774,0.0021,0.0000,5.6205,-0.0018
24.9400,0.2774,0.0021,0.0000,5.6205,-0.0019
24.9500,0.2774,0.0021,0.0000,5.6205,-0.0018
24.9600,0.2774,0.0021,0.0000,5.6205,-0.0018
24.9700,0.2774,0.0021,0.0000,5.6205,-0.0019
24.9800,0.2774,0.0021,0.0000,5.6206,-0.0018
24.9900,0.2774,0.0021,0.0000,5.6206,-0.0019
25.0000,0.2774,0.0021,0.0000,5.6206,-0.0018
25.0100,0.2774,0.0021,0.0000,5.6206,-0.0018
25.0200,0.2774,0.0021,0.0000,5.6206,-0.0019
25.0300,0.2774,0.0021,0.0000,5.6207,-0.0018
25.0400,0.2774,0.0021,0.0000,5.6207,-0.0019
25.0500,0.2774,0.0021,0.0000,5.6207,-0.0018
25.0600,0.2774,0.0021,0.0000,5.6207,-0.0018
25.0700,0.2774,0.0021,0.0000,5.6207,-0.0019
25.0800,0.2774,0.0021,0.0000,5.6207,-0.0018
25.0900,0.2774,0.0021,0.0000,5.6208,-0.0019
25.1000,0.2774,0.0021,0.0000,5.6208,-0.0018
25.1100,0.2774,0.0021,0.0000,5.6208,-0.0018
25.1200,0.2774,0.0021,0.0000,5.6208,-0.0019
25.1300,0.2774,0.0021,0.0000,5.6208,-0.0018
25.1400,0.2774,0.0021,0.0000,5.6209,-0.0019
25.1500,0.2774,0.0021,0.0000,5.6209,-0.0018
25.1600,0.2774,0.0021,0.0000,5.6209,-0.0018
25.1700,0.2774,0.0021,0.0000,5.6209,-0.0019
25.1800,0.2774,0.0021,0.0000,5.6209,-0.0018
25.1900,0.2774,0.0021,0.0000,5.6210,-0.0019
25.2000,0.2774,0.0021,0.0000,5.6210,-0.0018
25.2100,0.2774,0.0021,0.0000,5.6210,-0.0018
25.2200,0.2774,0.0021,0.0000,5.6210,-0.0018
25.2300,0.2774,0.0021,0.0000,5.6210,-0.0017
25.2400,0.2774,0.0021,0.0000,5.6210,-0.0017
25.2500,0.2774,0.0021,0.0000,5.6211,-0.0016
25.2600,0.2774,0.0021,0.0000,5.6211,-0.0018
25.2700,0.2774,0.0021,0.0000,5.6211,-0.0018
25.2800,0.2774,0.0021,0.0000,5.6211,-0.0019
25.2900,0.2774,0.0021,0.0000,5.6211,-0.0018
25.3000,0.2774,0.0021,0.0000,5.6211,-0.0019
25.3100,0.2774,0.0021,0.0000,5.6212,-0.0016
25.3200,0.2774,0.0021,0.0000,5.6212,-0.0017
25.3300,0.2774,0.0021,0.0000,5.6212,-0.0016
25.3400,0.2774,0.0021,0.0000,5.6212,-0.0015
25.3500,0.2774,0.0021,0.0000,5.6212,-0.0014
25.3600,0.2774,0.0021,0.0000,5.6212,-0.0014
25.3700,0.2774,0.0021,0.0000,5.6213,-0.0014
25.3800,0.2774,0.0021,0.0000,5.6213,-0.0014
25.3900,0.2774,0.0021,0.0000,5.6213,-0.0015
25.4000,0.2774,0.0021,0.0000,5.6213,-0.0012
25.4100,0.2774,0.0021,0.0000,5.6213,-0.0014
25.4200,0.2774,0.0021,0.0000,5.6213,-0.0014
25.4300,0.2774,0.0021,0.0000,5.6213,-0.0014
25.4400,0.2774,0.0021,0.0000,5.6213,-0.0015
25.4500,0.2774,0.0021,0.0000,5.6214,-0.0015
25.4600,0.2774,0.0021,0.0000,5.6214,-0.0014
25.4700,0.2774,0.0021,0.0000,5.6214,-0.0016
25.4800,0.2774,0.0021,0.0000,5.6214,-0.0015
25.4900,0.2774,0.0021,0.0000,5.6214,-0.0015
25.5000,0.2774,0.0021,0.0000,5.6214,-0.0014
25.5100,0.2774,0.0021,0.0000,5.6215,-0.0014
25.5200,0.2774,0.0021,0.0000,5.6215,-0.0013
25.5300,0.2774,0.0021,0.0000,5.6215,-0.0013
25.5400,0.2774,0.0021,0.0000,5.6215,-0.0012
25.5500,0.2774,0.0021,0.0000,5.6215,-0.0012
25.5600,0.2774,0.0021,0.0000,5.6215,-0.0012
25.5700,0.2774,0.0021,0.0000,5.6215,-0.0012
25.5800,0.2774,0.0021,0.0000,5.6215,-0.0012
25.5900,0.2774,0.0021,0.0000,5.6216,-0.0012
25.6000,0.2774,0.0021,0.0000,5.6216,-0.0012
25.6100,0.2774,0.0021,0.0000,5.6216,-0.0012
25.6200,0.2774,0.0021,0.0000,5.6216,-0.0013
25.6300,0.2774,0.0021,0.0000,5.6216,-0.0012
25.6400,0.2774,0.0021,0.0000,5.6216,-0.0013
25.6500,0.2774,0.0021,0.0000,5.6216,-0.0012
25.6600,0.2774,0.0021,0.0000,5.6216,-0.0013
25.6700,0.2774,0.0021,0.0000,5.6217,-0.0012
25.6800,0.2774,0.0021,0.0000,5.6217,-0.0012
25.6900,0.2774,0.0021,0.0000,5.6217,-0.0012
25.7000,0.2774,0.0021,0.0000,5.6217,-0.0012
25.7100,0.2774,0.0021,0.0000,5.6217,-0.0012
25.7200,0.2774,0.0021,0.0000,5.6217,-0.0012
25.7300,0.2774,0.0021,0.0000,5.6217,-0.0012
25.7400,0.2774,0.0021,0.0000,5.6217,-0.0012
25.7500,0.2774,0.0021,0.0000,5.6217,-0.0012
25.7600,0.2774,0.0021,0.0000,5.6218,-0.0012
25.7700,0.2774,0.0021,0.0000,5.6218,-0.0012
25.7800,0.2774,0.0021,0.0000,5.6218,-0.0012
25.7900,0.2774,0.0021,0.0000,5.6218,-0.0012
25.8000,0.2774,0.0021,0.0000,5.6218,-0.0012
25.8100,0.2774,0.0021,0.0000,5.6218,-0.0012
25.8200,0.2774,0.0021,0.0000,5.6218,-0.0012
25.8300,0.2774,0.0021,0.0000,5.6218,-0.0012
25.8400,0.2774,0.0021,0.0000,5.6219,-0.0012
25.8500,0.2774,0.0021,0.0000,5.6219,-0.0012
25.8600,0.2774,0.0021,0.0000,5.6219,-0.0012
25.8700,0.2774,0.0021,0.0000,5.6219,-0.0012
25.8800,0.2774,0.0021,0.0000,5.6219,-0.0012
25.8900,0.2774,0.0021,0.0000,5.6219,-0.0012
25.9000,0.2774,0.0021,0.0000,5.6219,-0.0012
25.9100,0.2774,0.0021,0.0000,5.6219,-0.0012
25.9200,0.2774,0.0021,0.0000,5.6220,-0.0012
25.9300,0.2774,0.0021,0.0000,5.6220,-0.0012
25.9400,0.2774,0.0021,0.0000,5.6220,-0.0012
25.9500,0.2774,0.0021,0.0000,5.6220,-0.0012
25.9600,0.2774,0.0021,0.0000,5.6220,-0.0012
25.9700,0.2774,0.0021,0.0000,5.6220,-0.0012
25.9800,0.2774,0.0021,0.0000,5.6220,-0.0012
25.9900,0.2774,0.0021,0.0000,5.6220,-0.0012
26.0000,0.2774,0.0021,0.0000,5.6221,-0.0012
26.0100,0.2774,0.0021,0.0000,5.6221,-0.0012
26.0200,0.2774,0.0021,0.0000,5.6221,-0.0012
26.0300,0.2774,0.0021,0.0000,5.6221,-0.0012
26.0400,0.2774,0.0021,0.0000,5.6221,-0.0012
26.0500,0.2774,0.0021,0.0000,5.6221,-0.0012
26.0600,0.2774,0.0021,0.0000,5.6221,-0.0012
26.0700,0.2774,0.0021,0.0000,5.6221,-0.0012
26.0800,0.2774,0.0021,0.0000,5.6222,-0.0012
26.0900,0.2774,0.0021,0.0000,5.6222,-0.0012
26.1000,0.2774,0.0021,0.0000,5.6259,-0.3722
26.1100,0.2774,0.0021,0.0000,5.6257,0.0199
26.1200,0.2774,0.0021,0.0000,5.6255,0.0208
26.1300,0.2774,0.0021,0.0000,5.6253,0.0230
26.1400,0.2774,0.0021,0.0000,5.6250,0.0239
26.1500,0.2774,0.0021,0.0000,5.6248,0.0241
26.1600,0.2774,0.0021,0.0000,5.6245,0.0236
26.1700,0.2774,0.0021,0.0000,5.6243,0.0226
26.1800,0.2774,0.0021,0.0000,5.6241,0.0214
26.1900,0.2774,0.0021,0.0000,5.6239,0.0199
26.2000,0.2774,0.0021,0.0000,5.6237,0.0184
26.2100,0.2774,0.0021,0.0000,5.6235,0.0169
26.2200,0.2774,0.0021,0.0000,5.6234,0.0153
26.2300,0.2774,0.0021,0.0000,5.6233,0.0123
26.2400,0.2774,0.0021,0.0000,5.6232,0.0103
26.2500,0.2774,0.0021,0.0000,5.6231,0.0089
26.2600,0.2774,0.0021,0.0000,5.6230,0.0075
26.2700,0.2774,0.0021,0.0000,5.6229,0.0064
26.2800,0.2774,0.0021,0.0000,5.6229,0.0052
26.2900,0.2774,0.0021,0.0000,5.6228,0.0043
26.3000,0.2774,0.0021,0.0000,5.6228,0.0035
26.3100,0.2774,0.0021,0.0000,5.6228,0.0028
26.3200,0.2774,0.0021,0.0000,5.6228,0.0020
26.3300,0.2774,0.0021,0.0000,5.6227,0.0013
26.3400,0.2774,0.0021,0.0000,5.6227,0.0008
26.3500,0.2774,0.0021,0.0000,5.6227,0.0003
26.3600,0.2774,0.0021,0.0000,5.6227,-0.0000
26.3700,0.2774,0.0021,0.0000,5.6227,-0.0006
26.3800,0.2774,0.0021,0.0000,5.6227,-0.0007
26.3900,0.2774,0.0021,0.0000,5.6228,-0.0012
26.4000,0.2774,0.0021,0.0000,5.6228,-0.0012
26.4100,0.2774,0.0021,0.0000,5.6228,-0.0019
26.4200,0.2774,0.0021,0.0000,5.6228,-0.0018
26.4300,0.2774,0.0021,0.0000,5.6228,-0.0019
26.4400,0.2774,0.0021,0.0000,5.6229,-0.0022
26.4500,0.2774,0.0021,0.0000,5.6229,-0.0024
26.4600,0.2774,0.0021,0.0000,5.6229,-0.0024
26.4700,0.2774,0.0021,0.0000,5.6229,-0.0025
26.4800,0.2774,0.0021,0.0000,5.6229,-0.0024
26.4900,0.2774,0.0021,0.0000,5.6230,-0.0024
26.5000,0.2774,0.0021,0.0000,5.6230,-0.0024
26.5100,0.2774,0.0021,0.0000,5.6230,-0.0026
26.5200,0.2774,0.0021,0.0000,5.6231,-0.0028
26.5300,0.2774,0.0021,0.0000,5.6231,-0.0029
26.5400,0.2774,0.0021,0.0000,5.6231,-0.0029
26.5500,0.2774,0.0021,0.0000,5.6231,-0.0030
26.5600,0.2774,0.0021,0.0000,5.6232,-0.0030
26.5700,0.2774,0.0021,0.0000,5.6232,-0.0031
26.5800,0.2774,0.0021,0.0000,5.6232,-0.0031
26.5900,0.2774,0.0021,0.0000,5.6233,-0.0031
26.6000,0.2774,0.0021,0.0000,5.6233,-0.0031
26.6100,0.2774,0.0021,0.0000,5.6233,-0.0031
26.6200,0.2774,0.0021,0.0000,5.6234,-0.0031
26.6300,0.2774,0.0021,0.0000,5.6398,-1.6416
26.6400,0.2774,0.0021,0.0000,5.6376,0.2162
26.6500,0.2774,0.0021,0.0000,5.6366,0.0985
26.6600,0.2774,0.0021,0.0000,5.6359,0.0756
26.6700,0.2774,0.0021,0.0000,5.6353,0.0576
26.6800,0.2774,0.0021,0.0000,5.6348,0.0440
26.6900,0.2774,0.0021,0.0000,5.6345,0.0333
26.7000,0.2774,0.0021,0.0000,5.6343,0.0250
26.7100,0.2774,0.0021,0.0000,5.6341,0.0189
26.7200,0.2774,0.0021,0.0000,5.6339,0.0141
26.7300,0.2774,0.0021,0.0000,5.6338,0.0106
26.7400,0.2774,0.0021,0.0000,5.6337,0.0080
26.7500,0.2774,0.0021,0.0000,5.6337,0.0060
26.7600,0.2774,0.0021,0.0000,5.6336,0.0042
26.7700,0.2774,0.0021,0.0000,5.6336,0.0024
26.7800,0.2774,0.0021,0.0000,5.6336,0.0018
26.7900,0.2774,0.0021,0.0000,5.6336,0.0015
26.8000,0.2774,0.0021,0.0000,5.6336,0.0012
26.8100,0.2774,0.0021,0.0000,5.6336,0.0012
26.8200,0.2774,0.0021,0.0000,5.6336,0.0012
26.8300,0.2774,0.0021,0.0000,5.6335,0.0012
26.8400,0.2774,0.0021,0.0000,5.6335,0.0012
26.8500,0.2774,0.0021,0.0000,5.6335,0.0012
26.8600,0.2774,0.0021,0.0000,5.6335,0.0012
26.8700,0.2774,0.0021,0.0000,5.6335,0.0012
26.8800,0.2774,0.0021,0.0000,5.6335,0.0012
26.8900,0.2774,0.0021,0.0000,5.6335,0.0014
26.9000,0.2774,0.0021,0.0000,5.6334,0.0018
26.9100,0.2774,0.0021,0.0000,5.6334,0.0018
26.9200,0.2774,0.0021,0.0000,5.6334,0.0019
26.9300,0.2774,0.0021,0.0000,5.6334,0.0018
26.9400,0.2774,0.0021,0.0000,5.6334,0.0019
26.9500,0.2774,0.0021,0.0000,5.6334,0.0018
26.9600,0.2774,0.0021,0.0000,5.6333,0.0017
26.9700,0.2774,0.0021,0.0000,5.6333,0.0013
26.9800,0.2774,0.0021,0.0000,5.6333,0.0012
26.9900,0.2774,0.0021,0.0000,5.6333,0.0012
27.0000,0.2774,0.0021,0.0000,5.6333,0.0012
27.0100,0.2774,0.0021,0.0000,5.6333,0.0012
27.0200,0.2774,0.0021,0.0000,5.6333,0.0012
27.0300,0.2774,0.0021,0.0000,5.6333,0.0012
27.0400,0.2774,0.0021,0.0000,5.6332,0.0012
27.0500,0.2774,0.0021,0.0000,5.6332,0.0012
27.0600,0.2774,0.0021,0.0000,5.6332,0.0012
27.0700,0.2774,0.0021,0.0000,5.6332,0.0012
27.0800,0.2774,0.0021,0.0000,5.6332,0.0011
27.0900,0.2774,0.0021,0.0000,5.6332,0.0007
27.1000,0.2774,0.0021,0.0000,5.6332,0.0006
27.1100,0.2774,0.0021,0.0000,5.6332,0.0006
27.1200,0.2774,0.0021,0.0000,5.6332,0.0006
27.1300,0.2774,0.0021,0.0000,5.6332,0.0006
27.1400,0.2774,0.0021,0.0000,5.6332,0.0006
27.1500,0.2774,0.0021,0.0000,5.6332,0.0006
27.1600,0.2774,0.0021,0.0000,5.6331,0.0006
27.1700,0.2774,0.0021,0.0000,5.6331,0.0006
27.1800,0.2774,0.0021,0.0000,5.6331,0.0006
27.1900,0.2774,0.0021,0.0000,5.6331,0.0006
27.2000,0.2774,0.0021,0.0000,5.6331,0.0006
27.2100,0.2774,0.0021,0.0000,5.6331,0.0002
27.2200,0.2774,0.0021,0.0000,5.6331,0.0000
27.2300,0.2774,0.0021,0.0000,5.6331,0.0000
27.2400,0.2774,0.0021,0.0000,5.6331,0.0000
27.2500,0.2774,0.0021,0.0000,5.6331,0.0000
27.2600,0.2774,0.0021,0.0000,5.6331,0.0000
27.2700,0.2774,0.0021,0.0000,5.6331,0.0000
27.2800,0.2774,0.0021,0.0000,5.6331,0.0000
27.2900,0.2774,0.0021,0.0000,5.6331,0.0000
27.3000,0.2774,0.0021,0.0000,5.6331,0.0000
27.3100,0.2774,0.0021,0.0000,5.6331,0.0000
27.3200,0.2774,0.0021,0.0000,5.6331,0.0000
27.3300,0.2774,0.0021,0.0000,5.6331,0.0000
27.3400,0.2774,0.0021,0.0000,5.6331,0.0000
27.3500,0.2774,0.0021,0.0000,5.6331,0.0000
27.3600,0.2774,0.0021,0.0000,5.6331,0.0000
27.3700,0.2774,0.0021,0.0000,5.6331,0.0000
27.3800,0.2774,0.0021,0.0000,5.6331,0.0000
27.3900,0.2774,0.0021,0.0000,5.6331,0.0000
27.4000,0.2774,0.0021,0.0000,5.6331,0.0000
27.4100,0.2774,0.0021,0.0000,5.6331,-0.0002
27.4200,0.2774,0.0021,0.0000,5.6331,-0.0002
27.4300,0.2774,0.0021,0.0000,5.6331,-0.0003
27.4400,0.2774,0.0021,0.0000,5.6331,-0.0003
27.4500,0.2774,0.0021,0.0000,5.6331,-0.0005
27.4600,0.2774,0.0021,0.0000,5.6331,-0.0004
27.4700,0.2774,0.0021,0.0000,5.6331,-0.0005
27.4800,0.2774,0.0021,0.0000,5.6331,-0.0004
27.4900,0.2774,0.0021,0.0000,5.6331,-0.0003
27.5000,0.2774,0.0021,0.0000,5.6332,-0.0002
27.5100,0.2774,0.0021,0.0000,5.6332,-0.0004
27.5200,0.2774,0.0021,0.0000,5.6332,-0.0004
27.5300,0.2774,0.0021,0.0000,5.6332,-0.0002
27.5400,0.2774,0.0021,0.0000,5.6332,-0.0003
27.5500,0.2774,0.0021,0.0000,5.6332,-0.0004
27.5600,0.2774,0.0021,0.0000,5.6332,-0.0004
27.5700,0.2774,0.0021,0.0000,5.6332,-0.0005
27.5800,0.2774,0.0021,0.0000,5.6332,-0.0003
27.5900,0.2774,0.0021,0.0000,5.6332,-0.0004
27.6000,0.2774,0.0021,0.0000,5.6332,-0.0004
27.6100,0.2774,0.0021,0.0000,5.6332,-0.0004
27.6200,0.2774,0.0021,0.0000,5.6332,-0.0004
27.6300,0.2774,0.0021,0.0000,5.6332,-0.0004
27.6400,0.2774,0.0021,0.0000,5.6332,-0.0005
27.6500,0.2774,0.0021,0.0000,5.6332,-0.0004
27.6600,0.2774,0.0021,0.0000,5.6332,-0.0004
27.6700,0.2774,0.0021,0.0000,5.6332,-0.0003
27.6800,0.2774,0.0021,0.0000,5.6332,-0.0003
27.6900,0.2774,0.0021,0.0000,5.6332,-0.0005
27.7000,0.2774,0.0021,0.0000,5.6332,-0.0006
27.7100,0.2774,0.0021,0.0000,5.6332,-0.0006
27.7200,0.2774,0.0021,0.0000,5.6332,-0.0006
27.7300,0.2774,0.0021,0.0000,5.6332,-0.0006
27.7400,0.2774,0.0021,0.0000,5.6333,-0.0006
27.7500,0.2774,0.0021,0.0000,5.6333,-0.0006
27.7600,0.2774,0.0021,0.0000,5.6333,-0.0006
27.7700,0.2774,0.0021,0.0000,5.6333,-0.0006
27.7800,0.2774,0.0021,0.0000,5.6333,-0.0006
27.7900,0.2774,0.0021,0.0000,5.6333,-0.0006
27.8000,0.2774,0.0021,0.0000,5.6333,-0.0006
27.8100,0.2774,0.0021,0.0000,5.6333,-0.0006
27.8200,0.2774,0.0021,0.0000,5.6333,-0.0006
27.8300,0.2774,0.0021,0.0000,5.6333,-0.0006
27.8400,0.2774,0.0021,0.0000,5.6333,-0.0006
27.8500,0.2774,0.0021,0.0000,5.6333,-0.0006
27.8600,0.2774,0.0021,0.0000,5.6333,-0.0006
27.8700,0.2774,0.0021,0.0000,5.6333,-0.0006
27.8800,0.2774,0.0021,0.0000,5.6333,-0.0006
27.8900,0.2774,0.0021,0.0000,5.6333,-0.0006
27.9000,0.2774,0.0021,0.0000,5.6334,-0.0006
27.9100,0.2774,0.0021,0.0000,5.6334,-0.0006
27.9200,0.2774,0.0021,0.0000,5.6334,-0.0005
27.9300,0.2774,0.0021,0.0000,5.6334,-0.0005
27.9400,0.2774,0.0021,0.0000,5.6334,-0.0004
27.9500,0.2774,0.0021,0.0000,5.6334,-0.0003
27.9600,0.2774,0.0021,0.0000,5.6334,-0.0004
27.9700,0.2774,0.0021,0.0000,5.6334,-0.0000
27.9800,0.2774,0.0021,0.0000,5.6334,0.0000
27.9900,0.2774,0.0021,0.0000,5.6334,0.0000
28.0000,0.2774,0.0021,0.0000,5.6334,-0.0001
28.0100,0.2774,0.0021,0.0000,5.6334,-0.0038
28.0200,0.2774,0.0021,0.0000,5.6335,-0.0130
28.0300,0.2774,0.0021,0.0000,5.6337,-0.0134
28.0400,0.2774,0.0021,0.0000,5.6338,-0.0135
28.0500,0.2774,0.0021,0.0000,5.6340,-0.0136
28.0600,0.2774,0.0021,0.0000,5.6341,-0.0135
28.0700,0.2774,0.0021,0.0000,5.6342,-0.0134
28.0800,0.2774,0.0021,0.0000,5.6344,-0.0134
28.0900,0.2774,0.0021,0.0000,5.6345,-0.0133
28.1000,0.2774,0.0021,0.0000,5.6346,-0.0128
28.1100,0.2774,0.0021,0.0000,5.6347,-0.0128
28.1200,0.2774,0.0021,0.0000,5.6349,-0.0124
28.1300,0.2774,0.0021,0.0000,5.6350,-0.0122
28.1400,0.2774,0.0021,0.0000,5.6351,-0.0121
28.1500,0.2774,0.0021,0.0000,5.6352,-0.0116
28.1600,0.2774,0.0021,0.0000,5.6353,-0.0116
28.1700,0.2774,0.0021,0.0000,5.6355,-0.0114
28.1800,0.2774,0.0021,0.0000,5.6356,-0.0110
28.1900,0.2774,0.0021,0.0000,5.6357,-0.0110
28.2000,0.2774,0.0021,0.0000,5.6358,-0.0110
28.2100,0.2774,0.0021,0.0000,5.6359,-0.0107
28.2200,0.2774,0.0021,0.0000,5.6360,-0.0103
28.2300,0.2774,0.0021,0.0000,5.6361,-0.0104
28.2400,0.2774,0.0021,0.0000,5.6362,-0.0104
28.2500,0.2774,0.0021,0.0000,5.6363,-0.0103
28.2600,0.2774,0.0021,0.0000,5.6364,-0.0101
28.2700,0.2774,0.0021,0.0000,5.6365,-0.0098
28.2800,0.2774,0.0021,0.0000,5.6366,-0.0098
28.2900,0.2774,0.0021,0.0000,5.6367,-0.0098
28.3000,0.2774,0.0021,0.0000,5.6368,-0.0098
28.3100,0.2774,0.0021,0.0000,5.6369,-0.0097
28.3200,0.2774,0.0021,0.0000,5.6370,-0.0098
28.3300,0.2774,0.0021,0.0000,5.6371,-0.0097
28.3400,0.2774,0.0021,0.0000,5.6372,-0.0096
28.3500,0.2774,0.0021,0.0000,5.6373,-0.0093
28.3600,0.2774,0.0021,0.0000,5.6374,-0.0092
28.3700,0.2774,0.0021,0.0000,5.6375,-0.0092
28.3800,0.2774,0.0021,0.0000,5.6376,-0.0092
28.3900,0.2774,0.0021,0.0000,5.6377,-0.0092
28.4000,0.2774,0.0021,0.0000,5.6377,-0.0092
28.4100,0.2774,0.0021,0.0000,5.6378,-0.0092
28.4200,0.2774,0.0021,0.0000,5.6379,-0.0092
28.4300,0.2774,0.0021,0.0000,5.6380,-0.0092
28.4400,0.2774,0.0021,0.0000,5.6381,-0.0092
28.4500,0.2774,0.0021,0.0000,5.6382,-0.0092
28.4600,0.2774,0.0021,0.0000,5.6383,-0.0092
28.4700,0.2774,0.0021,0.0000,5.6384,-0.0092
28.4800,0.2774,0.0021,0.0000,5.6385,-0.0091
28.4900,0.2774,0.0021,0.0000,5.6386,-0.0088
28.5000,0.2774,0.0021,0.0000,5.6386,-0.0088
28.5100,0.2774,0.0021,0.0000,5.6387,-0.0087
28.5200,0.2774,0.0021,0.0000,5.6388,-0.0086
28.5300,0.2774,0.0021,0.0000,5.6389,-0.0085
28.5400,0.2774,0.0021,0.0000,5.6390,-0.0085
28.5500,0.2774,0.0021,0.0000,5.6392,-0.0165
28.5600,0.2774,0.0021,0.0000,5.6393,-0.0154
28.5700,0.2774,0.0021,0.0000,5.6395,-0.0147
28.5800,0.2774,0.0021,0.0000,5.6396,-0.0141
28.5900,0.2774,0.0021,0.0000,5.6397,-0.0140
28.6000,0.2774,0.0021,0.0000,5.6399,-0.0136
28.6100,0.2774,0.0021,0.0000,5.6400,-0.0134
28.6200,0.2774,0.0021,0.0000,5.6401,-0.0134
28.6300,0.2774,0.0021,0.0000,5.6403,-0.0134
28.6400,0.2774,0.0021,0.0000,5.6404,-0.0134
28.6500,0.2774,0.0021,0.0000,5.6405,-0.0134
28.6600,0.2774,0.0021,0.0000,5.6407,-0.0134
28.6700,0.2774,0.0021,0.0000,5.6408,-0.0134
28.6800,0.2774,0.0021,0.0000,5.6409,-0.0134
28.6900,0.2774,0.0021,0.0000,5.6411,-0.0137
28.7000,0.2774,0.0021,0.0000,5.6412,-0.0138
28.7100,0.2774,0.0021,0.0000,5.6414,-0.0141
28.7200,0.2774,0.0021,0.0000,5.6415,-0.0140
28.7300,0.2774,0.0021,0.0000,5.6416,-0.0140
28.7400,0.2774,0.0021,0.0000,5.6418,-0.0141
28.7500,0.2774,0.0021,0.0000,5.6419,-0.0140
28.7600,0.2774,0.0021,0.0000,5.6421,-0.0141
28.7700,0.2774,0.0021,0.0000,5.6422,-0.0140
28.7800,0.2774,0.0021,0.0000,5.6423,-0.0140
28.7900,0.2774,0.0021,0.0000,5.6425,-0.0141
28.8000,0.2774,0.0021,0.0000,5.6426,-0.0140
28.8100,0.2774,0.0021,0.0000,5.6428,-0.0141
28.8200,0.2774,0.0021,0.0000,5.6429,-0.0140
28.8300,0.2774,0.0021,0.0000,5.6430,-0.0140
28.8400,0.2774,0.0021,0.0000,5.6432,-0.0141
28.8500,0.2774,0.0021,0.0000,5.6433,-0.0140
28.8600,0.2774,0.0021,0.0000,5.6435,-0.0141
28.8700,0.2774,0.0021,0.0000,5.6436,-0.0140
28.8800,0.2774,0.0021,0.0000,5.6438,-0.0139
28.8900,0.2774,0.0021,0.0000,5.6439,-0.0138
28.9000,0.2774,0.0021,0.0000,5.6440,-0.0137
28.9100,0.2774,0.0021,0.0000,5.6442,-0.0136
28.9200,0.2774,0.0021,0.0000,5.6443,-0.0135
28.9300,0.2774,0.0021,0.0000,5.6444,-0.0134
28.9400,0.2774,0.0021,0.0000,5.6446,-0.0134
28.9500,0.2774,0.0021,0.0000,5.6447,-0.0134
28.9600,0.2774,0.0021,0.0000,5.6448,-0.0134
28.9700,0.2774,0.0021,0.0000,5.6450,-0.0134
28.9800,0.2774,0.0021,0.0000,5.6451,-0.0134
28.9900,0.2774,0.0021,0.0000,5.6452,-0.0134
29.0000,0.2774,0.0021,0.0000,5.6454,-0.0134
29.0100,0.2774,0.0021,0.0000,5.6455,-0.0134
29.0200,0.2774,0.0021,0.0000,5.6456,-0.0134
29.0300,0.2774,0.0021,0.0000,5.6458,-0.0134
29.0400,0.2774,0.0021,0.0000,5.6459,-0.0134
29.0500,0.2774,0.0021,0.0000,5.6460,-0.0132
29.0600,0.2774,0.0021,0.0000,5.6462,-0.0130
29.0700,0.2774,0.0021,0.0000,5.6463,-0.0129
29.0800,0.2774,0.0021,0.0000,5.6464,-0.0128
29.0900,0.2774,0.0021,0.0000,5.6466,-0.0129
29.1000,0.2774,0.0021,0.0000,5.6467,-0.0128
29.1100,0.2774,0.0021,0.0000,5.6468,-0.0128
29.1200,0.2774,0.0021,0.0000,5.6469,-0.0128
29.1300,0.2774,0.0021,0.0000,5.6471,-0.0128
29.1400,0.2774,0.0021,0.0000,5.6472,-0.0128
29.1500,0.2774,0.0021,0.0000,5.6473,-0.0128
29.1600,0.2774,0.0021,0.0000,5.6475,-0.0128
29.1700,0.2774,0.0021,0.0000,5.6476,-0.0128
29.1800,0.2774,0.0021,0.0000,5.6477,-0.0128
29.1900,0.2774,0.0021,0.0000,5.6478,-0.0126
29.2000,0.2774,0.0021,0.0000,5.6480,-0.0124
29.2100,0.2774,0.0021,0.0000,5.6481,-0.0124
29.2200,0.2774,0.0021,0.0000,5.6482,-0.0122
29.2300,0.2774,0.0021,0.0000,5.6483,-0.0122
29.2400,0.2774,0.0021,0.0000,5.6485,-0.0192
29.2500,0.2774,0.0021,0.0000,5.6489,-0.0368
29.2600,0.2774,0.0021,0.0000,5.6493,-0.0376
29.2700,0.2774,0.0021,0.0000,5.6496,-0.0382
29.2800,0.2774,0.0021,0.0000,5.6500,-0.0385
29.2900,0.2774,0.0021,0.0000,5.6504,-0.0384
29.3000,0.2774,0.0021,0.0000,5.6508,-0.0381
29.3100,0.2774,0.0021,0.0000,5.6512,-0.0379
29.3200,0.2774,0.0021,0.0000,5.6515,-0.0375
29.3300,0.2774,0.0021,0.0000,5.6519,-0.0371
29.3400,0.2774,0.0021,0.0000,5.6523,-0.0366
29.3500,0.2774,0.0021,0.0000,5.6526,-0.0360
29.3600,0.2774,0.0021,0.0000,5.6530,-0.0356
29.3700,0.2774,0.0021,0.0000,5.6534,-0.0350
29.3800,0.2774,0.0021,0.0000,5.6537,-0.0345
29.3900,0.2774,0.0021,0.0000,5.6540,-0.0342
29.4000,0.2774,0.0021,0.0000,5.6544,-0.0336
29.4100,0.2774,0.0021,0.0000,5.6547,-0.0334
29.4200,0.2774,0.0021,0.0000,5.6550,-0.0329
29.4300,0.2774,0.0021,0.0000,5.6554,-0.0326
29.4400,0.2774,0.0021,0.0000,5.6557,-0.0323
29.4500,0.2774,0.0021,0.0000,5.6560,-0.0318
29.4600,0.2774,0.0021,0.0000,5.6563,-0.0317
29.4700,0.2774,0.0021,0.0000,5.6566,-0.0313
29.4800,0.2774,0.0021,0.0000,5.6569,-0.0311
29.4900,0.2774,0.0021,0.0000,5.6573,-0.0309
29.5000,0.2774,0.0021,0.0000,5.6576,-0.0305
29.5100,0.2774,0.0021,0.0000,5.6579,-0.0304
29.5200,0.2774,0.0021,0.0000,5.6582,-0.0301
29.5300,0.2774,0.0021,0.0000,5.6585,-0.0299
29.5400,0.2774,0.0021,0.0000,5.6588,-0.0299
29.5500,0.2774,0.0021,0.0000,5.6591,-0.0297
29.5600,0.2774,0.0021,0.0000,5.6594,-0.0294
29.5700,0.2774,0.0021,0.0000,5.6596,-0.0293
29.5800,0.2774,0.0021,0.0000,5.6599,-0.0293
29.5900,0.2774,0.0021,0.0000,5.6602,-0.0292
29.6000,0.2774,0.0021,0.0000,5.6605,-0.0288
29.6100,0.2774,0.0021,0.0000,5.6608,-0.0288
29.6200,0.2774,0.0021,0.0000,5.6611,-0.0287
29.6300,0.2774,0.0021,0.0000,5.6614,-0.0287
29.6400,0.2774,0.0021,0.0000,5.6617,-0.0286
29.6500,0.2774,0.0021,0.0000,5.6619,-0.0283
29.6600,0.2774,0.0021,0.0000,5.6622,-0.0282
29.6700,0.2774,0.0021,0.0000,5.6625,-0.0281
29.6800,0.2774,0.0021,0.0000,5.6628,-0.0280
29.6900,0.2774,0.0021,0.0000,5.6631,-0.0281
29.7000,0.2774,0.0021,0.0000,5.6634,-0.0280
29.7100,0.2774,0.0021,0.0000,5.6636,-0.0278
29.7200,0.2774,0.0021,0.0000,5.6639,-0.0275
29.7300,0.2774,0.0021,0.0000,5.6642,-0.0275
29.7400,0.2774,0.0021,0.0000,5.6645,-0.0275
29.7500,0.2774,0.0021,0.0000,5.6647,-0.0275
29.7600,0.2774,0.0021,0.0000,5.6650,-0.0275
29.7700,0.2774,0.0021,0.0000,5.6653,-0.0291
29.7800,0.2774,0.0021,0.0000,5.6657,-0.0414
29.7900,0.2774,0.0021,0.0000,5.6661,-0.0395
29.8000,0.2774,0.0021,0.0000,5.6665,-0.0382
29.8100,0.2774,0.0021,0.0000,5.6669,-0.0374
29.8200,0.2774,0.0021,0.0000,5.6672,-0.0368
29.8300,0.2774,0.0021,0.0000,5.6676,-0.0366
29.8400,0.2774,0.0021,0.0000,5.6680,-0.0361
29.8500,0.2774,0.0021,0.0000,5.6683,-0.0360
29.8600,0.2774,0.0021,0.0000,5.6687,-0.0361
29.8700,0.2774,0.0021,0.0000,5.6690,-0.0361
29.8800,0.2774,0.0021,0.0000,5.6694,-0.0362
29.8900,0.2774,0.0021,0.0000,5.6698,-0.0364
29.9000,0.2774,0.0021,0.0000,5.6701,-0.0366
29.9100,0.2774,0.0021,0.0000,5.6705,-0.0366
29.9200,0.2774,0.0021,0.0000,5.6709,-0.0366
29.9300,0.2774,0.0021,0.0000,5.6712,-0.0367
29.9400,0.2774,0.0021,0.0000,5.6716,-0.0368
29.9500,0.2774,0.0021,0.0000,5.6720,-0.0367
29.9600,0.2774,0.0021,0.0000,5.6723,-0.0371
29.9700,0.2774,0.0021,0.0000,5.6727,-0.0370
29.9800,0.2774,0.0021,0.0000,5.6731,-0.0371
29.9900,0.2774,0.0021,0.0000,5.6734,-0.0371
30.0000,0.2774,0.0021,0.0000,5.6738,-0.0371
30.0100,0.2774,0.0021,0.0000,5.6808,-0.0371
30.0200,0.2774,0.0021,0.0000,5.6756,-0.0371
30.0300,0.2774,0.0021,0.0000,5.6712,-0.0371
30.0400,0.2774,0.0021,0.0000,5.6676,-0.0371
30.0500,0.2774,0.0021,0.0000,5.6645,-0.0371
30.0600,0.2774,0.0021,0.0000,5.6619,-0.0371
30.0700,0.2774,0.0021,0.0000,5.6596,-0.0371
30.0800,0.2774,0.0021,0.0000,5.6576,-0.0371
30.0900,0.2774,0.0021,0.0000,5.6558,-0.0371
30.1000,0.2774,0.0021,0.0000,5.6542,-0.0371
30.1100,0.2774,0.0021,0.0000,5.6527,-0.0371
30.1200,0.2774,0.0021,0.0000,5.6514,-0.0371
30.1300,0.2774,0.0021,0.0000,5.6501,-0.0371
30.1400,0.2774,0.0021,0.0000,5.6488,-0.0371
30.1500,0.2774,0.0021,0.0000,5.6476,-0.0371
30.1600,0.2774,0.0021,0.0000,5.6465,-0.0371
30.1700,0.2774,0.0021,0.0000,5.6454,-0.0371
30.1800,0.2774,0.0021,0.0000,5.6443,-0.0371
30.1900,0.2774,0.0021,0.0000,5.6432,-0.0371
30.2000,0.2774,0.0021,0.0000,5.6421,-0.0371
30.2100,0.2774,0.0021,0.0000,5.6410,-0.0371
30.2200,0.2774,0.0021,0.0000,5.6400,-0.0371
30.2300,0.2774,0.0021,0.0000,5.6389,-0.0371
30.2400,0.2774,0.0021,0.0000,5.6379,-0.0371
30.2500,0.2774,0.0021,0.0000,5.6368,-0.0371
30.2600,0.2774,0.0021,0.0000,5.6358,-0.0371
30.2700,0.2774,0.0021,0.0000,5.6347,-0.0371
30.2800,0.2774,0.0021,0.0000,5.6337,-0.0371
30.2900,0.2774,0.0021,0.0000,5.6326,-0.0371
30.3000,0.2774,0.0021,0.0000,5.6316,-0.0371
30.3100,0.2774,0.0021,0.0000,5.6305,-0.0371
30.3200,0.2774,0.0021,0.0000,5.6295,-0.0371
30.3300,0.2774,0.0021,0.0000,5.6285,-0.0371
30.3400,0.2774,0.0021,0.0000,5.6274,-0.0371
30.3500,0.2774,0.0021,0.0000,5.6264,-0.0371
30.3600,0.2774,0.0021,0.0000,5.6253,-0.0371
30.3700,0.2774,0.0021,0.0000,5.6243,-0.0371
30.3800,0.2774,0.0021,0.0000,5.6232,-0.0371
30.3900,0.2774,0.0021,0.0000,5.6222,-0.0371
30.4000,0.2774,0.0021,0.0000,5.6211,-0.0371
30.4100,0.2774,0.0021,0.0000,5.6201,-0.0371
30.4200,0.2774,0.0021,0.0000,5.6190,-0.0371
30.4300,0.2774,0.0021,0.0000,5.6180,-0.0371
30.4400,0.2774,0.0021,0.0000,5.6169,-0.0371
30.4500,0.2774,0.0021,0.0000,5.6159,-0.0371
30.4600,0.2774,0.0021,0.0000,5.6149,-0.0371
30.4700,0.2774,0.0021,0.0000,5.6138,-0.0371
30.4800,0.2774,0.0021,0.0000,5.6128,-0.0371
30.4900,0.2774,0.0021,0.0000,5.6117,-0.0371
30.5000,0.2774,0.0021,0.0000,5.6107,-0.0371
30.5100,0.2774,0.0021,0.0000,5.6097,-0.0371
30.5200,0.2774,0.0021,0.0000,5.6087,-0.0371
30.5300,0.2774,0.0021,0.0000,5.6076,-0.0371
30.5400,0.2774,0.0021,0.0000,5.6066,-0.0371
30.5500,0.2774,0.0021,0.0000,5.6056,-0.0371
30.5600,0.2774,0.0021,0.0000,5.6046,-0.0371
30.5700,0.2774,0.0021,0.0000,5.6035,-0.0371
30.5800,0.2774,0.0021,0.0000,5.6025,-0.0371
30.5900,0.2774,0.0021,0.0000,5.6015,-0.0371
30.6000,0.2774,0.0021,0.0000,5.6005,-0.0371
30.6100,0.2774,0.0021,0.0000,5.5995,-0.0371
30.6200,0.2774,0.0021,0.0000,5.5985,-0.0371
30.6300,0.2774,0.0021,0.0000,5.5975,-0.0371
30.6400,0.2774,0.0021,0.0000,5.5965,-0.0371
30.6500,0.2774,0.0021,0.0000,5.5955,-0.0371
30.6600,0.2774,0.0021,0.0000,5.5945,-0.0371
30.6700,0.2774,0.0021,0.0000,5.5935,-0.0371
30.6800,0.2774,0.0021,0.0000,5.5925,-0.0371
30.6900,0.2774,0.0021,0.0000,5.5916,-0.0371
30.7000,0.2774,0.0021,0.0000,5.5906,-0.0371
30.7100,0.2774,0.0021,0.0000,5.5896,-0.0371
30.7200,0.2774,0.0021,0.0000,5.5886,-0.0371
30.7300,0.2774,0.0021,0.0000,5.5876,-0.0371
30.7400,0.2774,0.0021,0.0000,5.5867,-0.0371
30.7500,0.2774,0.0021,0.0000,5.5857,-0.0371
30.7600,0.2774,0.0021,0.0000,5.5848,-0.0371
30.7700,0.2774,0.0021,0.0000,5.5838,-0.0371
30.7800,0.2774,0.0021,0.0000,5.5828,-0.0371
30.7900,0.2774,0.0021,0.0000,5.5819,-0.0371
30.8000,0.2774,0.0021,0.0000,5.5809,-0.0371
30.8100,0.2774,0.0021,0.0000,5.5800,-0.0371
30.8200,0.2774,0.0021,0.0000,5.5790,-0.0371
30.8300,0.2774,0.0021,0.0000,5.5781,-0.0371
30.8400,0.2774,0.0021,0.0000,5.5771,-0.0371
30.8500,0.2774,0.0021,0.0000,5.5762,-0.0371
30.8600,0.2774,0.0021,0.0000,5.5753,-0.0371
30.8700,0.2774,0.0021,0.0000,5.5744,-0.0371
30.8800,0.2774,0.0021,0.0000,5.5734,-0.0371
30.8900,0.2774,0.0021,0.0000,5.5725,-0.0371
30.9000,0.2774,0.0021,0.0000,5.5716,-0.0371
30.9100,0.2774,0.0021,0.0000,5.5707,-0.0371
30.9200,0.2774,0.0021,0.0000,5.5697,-0.0371
30.9300,0.2774,0.0021,0.0000,5.5688,-0.0371
30.9400,0.2774,0.0021,0.0000,5.5679,-0.0371
30.9500,0.2774,0.0021,0.0000,5.5670,-0.0371
30.9600,0.2774,0.0021,0.0000,5.5661,-0.0371
30.9700,0.2774,0.0021,0.0000,5.5652,-0.0371
30.9800,0.2774,0.0021,0.0000,5.5643,-0.0371
30.9900,0.2774,0.0021,0.0000,5.5634,-0.0371
31.0000,0.2774,0.0021,0.0000,5.5625,-0.0371
31.0100,0.2774,0.0021,0.0000,5.5617,-0.0371
31.0200,0.2774,0.0021,0.0000,5.5608,-0.0371
31.0300,0.2774,0.0021,0.0000,5.5599,-0.0371
31.0400,0.2774,0.0021,0.0000,5.5590,-0.0371
31.0500,0.2774,0.0021,0.0000,5.5582,-0.0371
31.0600,0.2774,0.0021,0.0000,5.5573,-0.0371
31.0700,0.2774,0.0021,0.0000,5.5564,-0.0371
31.0800,0.2774,0.0021,0.0000,5.5556,-0.0371
31.0900,0.2774,0.0021,0.0000,5.5547,-0.0371
31.1000,0.2774,0.0021,0.0000,5.5538,-0.0371
31.1100,0.2774,0.0021,0.0000,5.5530,-0.0371
31.1200,0.2774,0.0021,0.0000,5.5524,-0.0371
31.1300,0.2774,0.0021,0.0000,5.5522,-0.0371
31.1400,0.2774,0.0021,0.0000,5.5521,-0.0371
31.1500,0.2774,0.0021,0.0000,5.5520,-0.0371
31.1600,0.2774,0.0021,0.0000,5.5519,-0.0371
31.1700,0.2774,0.0021,0.0000,5.5518,-0.0371
31.1800,0.2774,0.0021,0.0000,5.5517,-0.0371
31.1900,0.2774,0.0021,0.0000,5.5516,-0.0371
31.2000,0.2774,0.0021,0.0000,5.5515,-0.0371
31.2100,0.2774,0.0021,0.0000,5.5514,-0.0371
31.2200,0.2774,0.0021,0.0000,5.5513,-0.0371
31.2300,0.2774,0.0021,0.0000,5.5511,-0.0371
31.2400,0.2774,0.0021,0.0000,5.5509,-0.0371
31.2500,0.2774,0.0021,0.0000,5.5508,-0.0371
31.2600,0.2774,0.0021,0.0000,5.5506,-0.0371
31.2700,0.2774,0.0021,0.0000,5.5504,-0.0371
31.2800,0.2774,0.0021,0.0000,5.5502,-0.0371
31.2900,0.2774,0.0021,0.0000,5.5499,-0.0371
31.3000,0.2774,0.0021,0.0000,5.5497,-0.0371
31.3100,0.2774,0.0021,0.0000,5.5495,-0.0371
31.3200,0.2774,0.0021,0.0000,5.5492,-0.0371
31.3300,0.2774,0.0021,0.0000,5.5490,-0.0371
31.3400,0.2774,0.0021,0.0000,5.5488,-0.0371
31.3500,0.2774,0.0021,0.0000,5.5485,-0.0371
31.3600,0.2774,0.0021,0.0000,5.5482,-0.0371
31.3700,0.2774,0.0021,0.0000,5.5480,-0.0371
31.3800,0.2774,0.0021,0.0000,5.5477,-0.0371
31.3900,0.2774,0.0021,0.0000,5.5475,-0.0371
31.4000,0.2774,0.0021,0.0000,5.5472,-0.0371
31.4100,0.2774,0.0021,0.0000,5.5469,-0.0371
31.4200,0.2774,0.0021,0.0000,5.5467,-0.0371
31.4300,0.2774,0.0021,0.0000,5.5464,-0.0371
31.4400,0.2774,0.0021,0.0000,5.5461,-0.0371
31.4500,0.2774,0.0021,0.0000,5.5458,-0.0371
31.4600,0.2774,0.0021,0.0000,5.5456,-0.0371
31.4700,0.2774,0.0021,0.0000,5.5453,-0.0371
31.4800,0.2774,0.0021,0.0000,5.5450,-0.0371
31.4900,0.2774,0.0021,0.0000,5.5447,-0.0371
31.5000,0.2774,0.0021,0.0000,5.5445,-0.0371
31.5100,0.2774,0.0021,0.0000,5.5442,0.0272
31.5200,0.2774,0.0021,0.0000,5.5439,0.0272
31.5300,0.2774,0.0021,0.0000,5.5437,0.0271
31.5400,0.2774,0.0021,0.0000,5.5434,0.0272
31.5500,0.2774,0.0021,0.0000,5.5431,0.0271
31.5600,0.2774,0.0021,0.0000,5.5428,0.0270
31.5700,0.2774,0.0021,0.0000,5.5426,0.0269
31.5800,0.2774,0.0021,0.0000,5.5423,0.0303
31.5900,0.2774,0.0021,0.0000,5.5419,0.0324
31.6000,0.2774,0.0021,0.0000,5.5416,0.0354
31.6100,0.2774,0.0021,0.0000,5.5412,0.0354
31.6200,0.2774,0.0021,0.0000,5.5409,0.0353
31.6300,0.2774,0.0021,0.0000,5.5405,0.0353
31.6400,0.2774,0.0021,0.0000,5.5402,0.0350
31.6500,0.2774,0.0021,0.0000,5.5398,0.0348
31.6600,0.2774,0.0021,0.0000,5.5396,0.0206
31.6700,0.2774,0.0021,0.0000,5.5396,0.0002
31.6800,0.2774,0.0021,0.0000,5.5397,-0.0045
31.6900,0.2774,0.0021,0.0000,5.5397,-0.0012
31.7000,0.2774,0.0021,0.0000,5.5397,0.0011
31.7100,0.2774,0.0021,0.0000,5.5396,0.0026
31.7200,0.2774,0.0021,0.0000,5.5396,0.0035
31.7300,0.2736,-0.0017,0.0000,5.5396,0.0039
31.7400,0.2736,-0.0017,0.0000,5.5395,0.0055
31.7500,0.2736,-0.0017,0.0000,5.5394,0.0088
31.7600,0.2736,-0.0017,0.0000,5.5393,0.0115
31.7700,0.2736,-0.0017,0.0000,5.5392,0.0137
31.7800,0.2736,-0.0017,0.0000,5.5390,0.0157
31.7900,0.2736,-0.0017,0.0000,5.5388,0.0172
31.8000,0.2736,-0.0017,0.0000,5.5387,0.0186
31.8100,0.2736,-0.0017,0.0000,5.5385,0.0198
31.8200,0.2736,-0.0017,0.0000,5.5383,0.0208
31.8300,0.2736,-0.0017,0.0000,5.5380,0.0216
31.8400,0.2736,-0.0017,0.0000,5.5378,0.0223
31.8500,0.2736,-0.0017,0.0000,5.5376,0.0229
31.8600,0.2736,-0.0017,0.0000,5.5374,0.0233
31.8700,0.2736,-0.0017,0.0000,5.5371,0.0238
31.8800,0.2736,-0.0017,0.0000,5.5369,0.0242
31.8900,0.2736,-0.0017,0.0000,5.5366,0.0244
31.9000,0.2736,-0.0017,0.0000,5.5364,0.0247
31.9100,0.2736,-0.0017,0.0000,5.5361,0.0250
31.9200,0.2736,-0.0017,0.0000,5.5359,0.0250
31.9300,0.2736,-0.0017,0.0000,5.5356,0.0253
31.9400,0.2736,-0.0017,0.0000,5.5354,0.0257
31.9500,0.2736,-0.0017,0.0000,5.5351,0.0256
31.9600,0.2736,-0.0017,0.0000,5.5349,0.0257
31.9700,0.2736,-0.0017,0.0000,5.5346,0.0256
31.9800,0.2736,-0.0017,0.0000,5.5343,0.0257
31.9900,0.2736,-0.0017,0.0000,5.5341,0.0257
32.0000,0.2736,-0.0017,0.0000,5.5338,0.0257
32.0100,0.2736,-0.0017,0.0000,5.5336,0.0257
32.0200,0.2736,-0.0017,0.0000,5.5333,0.0259
32.0300,0.2736,-0.0017,0.0000,5.5331,0.0257
32.0400,0.2736,-0.0017,0.0000,5.5328,0.0259
32.0500,0.2736,-0.0017,0.0000,5.5325,0.0258
32.0600,0.2736,-0.0017,0.0000,5.5323,0.0258
32.0700,0.2736,-0.0017,0.0000,5.5320,0.0258
32.0800,0.2736,-0.0017,0.0000,5.5318,0.0257
32.0900,0.2736,-0.0017,0.0000,5.5315,0.0257
32.1000,0.2736,-0.0017,0.0000,5.5313,0.0257
32.1100,0.2736,-0.0017,0.0000,5.5310,0.0256
32.1200,0.2736,-0.0017,0.0000,5.5307,0.0270
32.1300,0.2736,-0.0017,0.0000,5.5304,0.0284
32.1400,0.2736,-0.0017,0.0000,5.5301,0.0304
32.1500,0.2736,-0.0017,0.0000,5.5298,0.0298
32.1600,0.2736,-0.0017,0.0000,5.5296,0.0293
32.1700,0.2736,-0.0017,0.0000,5.5293,0.0292
32.1800,0.2736,-0.0017,0.0000,5.5290,0.0287
32.1900,0.2736,-0.0017,0.0000,5.5287,0.0287
32.2000,0.2736,-0.0017,0.0000,5.5284,0.0287
32.2100,0.2736,-0.0017,0.0000,5.5281,0.0287
32.2200,0.2736,-0.0017,0.0000,5.5278,0.0285
32.2300,0.2736,-0.0017,0.0000,5.5275,0.0283
32.2400,0.2736,-0.0017,0.0000,5.5273,0.0283
32.2500,0.2736,-0.0017,0.0000,5.5270,0.0281
32.2600,0.2736,-0.0017,0.0000,5.5267,0.0280
32.2700,0.2736,-0.0017,0.0000,5.5264,0.0281
32.2800,0.2736,-0.0017,0.0000,5.5261,0.0281
32.2900,0.2736,-0.0017,0.0000,5.5259,0.0281
32.3000,0.2736,-0.0017,0.0000,5.5256,0.0281
32.3100,0.2736,-0.0017,0.0000,5.5253,0.0280
32.3200,0.2736,-0.0017,0.0000,5.5250,0.0281
32.3300,0.2736,-0.0017,0.0000,5.5247,0.0281
32.3400,0.2736,-0.0017,0.0000,5.5245,0.0281
32.3500,0.2736,-0.0017,0.0000,5.5242,0.0281
32.3600,0.2736,-0.0017,0.0000,5.5239,0.0280
32.3700,0.2736,-0.0017,0.0000,5.5236,0.0281
32.3800,0.2736,-0.0017,0.0000,5.5233,0.0279
32.3900,0.2736,-0.0017,0.0000,5.5231,0.0278
32.4000,0.2736,-0.0017,0.0000,5.5228,0.0275
32.4100,0.2736,-0.0017,0.0000,5.5225,0.0275
32.4200,0.2736,-0.0017,0.0000,5.5222,0.0275
32.4300,0.2736,-0.0017,0.0000,5.5220,0.0275
32.4400,0.2736,-0.0017,0.0000,5.5217,0.0275
32.4500,0.2736,-0.0017,0.0000,5.5214,0.0275
32.4600,0.2736,-0.0017,0.0000,5.5211,0.0273
32.4700,0.2736,-0.0017,0.0000,5.5209,0.0273
32.4800,0.2736,-0.0017,0.0000,5.5206,0.0270
32.4900,0.2736,-0.0017,0.0000,5.5203,0.0269
32.5000,0.2736,-0.0017,0.0000,5.5200,0.0269
32.5100,0.2736,-0.0017,0.0000,5.5198,0.0268
32.5200,0.2736,-0.0017,0.0000,5.5195,0.0268
32.5300,0.2736,-0.0017,0.0000,5.5192,0.0268
32.5400,0.2736,-0.0017,0.0000,5.5190,0.0268
32.5500,0.2736,-0.0017,0.0000,5.5187,0.0266
32.5600,0.2736,-0.0017,0.0000,5.5184,0.0264
32.5700,0.2736,-0.0017,0.0000,5.5182,0.0262
32.5800,0.2736,-0.0017,0.0000,5.5179,0.0263
32.5900,0.2736,-0.0017,0.0000,5.5177,0.0262
32.6000,0.2736,-0.0017,0.0000,5.5174,0.0263
32.6100,0.2736,-0.0017,0.0000,5.5171,0.0262
32.6200,0.2736,-0.0017,0.0000,5.5169,0.0261
32.6300,0.2736,-0.0017,0.0000,5.5166,0.0259
32.6400,0.2736,-0.0017,0.0000,5.5164,0.0256
32.6500,0.2736,-0.0017,0.0000,5.5161,0.0257
32.6600,0.2736,-0.0017,0.0000,5.5158,0.0256
32.6700,0.2736,-0.0017,0.0000,5.5156,0.0257
32.6800,0.2736,-0.0017,0.0000,5.5153,0.0257
32.6900,0.2736,-0.0017,0.0000,5.5151,0.0256
32.7000,0.2736,-0.0017,0.0000,5.5148,0.0253
32.7100,0.2736,-0.0017,0.0000,5.5146,0.0250
32.7200,0.2736,-0.0017,0.0000,5.5143,0.0250
32.7300,0.2736,-0.0017,0.0000,5.5141,0.0250
32.7400,0.2736,-0.0017,0.0000,5.5138,0.0250
32.7500,0.2736,-0.0017,0.0000,5.5136,0.0250
32.7600,0.2736,-0.0017,0.0000,5.5133,0.0250
32.7700,0.2736,-0.0017,0.0000,5.5131,0.0248
32.7800,0.2736,-0.0017,0.0000,5.5128,0.0246
32.7900,0.2736,-0.0017,0.0000,5.5126,0.0244
32.8000,0.2736,-0.0017,0.0000,5.5123,0.0244
32.8100,0.2736,-0.0017,0.0000,5.5121,0.0244
32.8200,0.2736,-0.0017,0.0000,5.5118,0.0244
32.8300,0.2736,-0.0017,0.0000,5.5116,0.0244
32.8400,0.2736,-0.0017,0.0000,5.5114,0.0244
32.8500,0.2736,-0.0017,0.0000,5.5111,0.0241
32.8600,0.2736,-0.0017,0.0000,5.5109,0.0239
32.8700,0.2736,-0.0017,0.0000,5.5106,0.0238
32.8800,0.2736,-0.0017,0.0000,5.5104,0.0238
32.8900,0.2736,-0.0017,0.0000,5.5101,0.0267
32.9000,0.2736,-0.0017,0.0000,5.5099,0.0281
32.9100,0.2736,-0.0017,0.0000,5.5096,0.0281
32.9200,0.2736,-0.0017,0.0000,5.5093,0.0281
32.9300,0.2736,-0.0017,0.0000,5.5090,0.0280
32.9400,0.2736,-0.0017,0.0000,5.5087,0.0281
32.9500,0.2736,-0.0017,0.0000,5.5085,0.0281
32.9600,0.2736,-0.0017,0.0000,5.5082,0.0277
32.9700,0.2736,-0.0017,0.0000,5.5079,0.0275
32.9800,0.2736,-0.0017,0.0000,5.5076,0.0309
32.9900,0.2736,-0.0017,0.0000,5.5073,0.0317
33.0000,0.2736,-0.0017,0.0000,5.5070,0.0318
33.0100,0.2736,-0.0017,0.0000,5.5066,0.0315
33.0200,0.2736,-0.0017,0.0000,5.5063,0.0312
33.0300,0.2736,-0.0017,0.0000,5.5062,0.0110
33.0400,0.2736,-0.0017,0.0000,5.5061,0.0080
33.0500,0.2736,-0.0017,0.0000,5.5061,0.0073
33.0600,0.2736,-0.0017,0.0000,5.5060,0.0072
33.0700,0.2736,-0.0017,0.0000,5.5059,0.0071
33.0800,0.2736,-0.0017,0.0000,5.5059,0.0072
33.0900,0.2736,-0.0017,0.0000,5.5058,0.0073
33.1000,0.2736,-0.0017,0.0000,5.5057,0.0073
33.1100,0.2736,-0.0017,0.0000,5.5056,0.0077
33.1200,0.2736,-0.0017,0.0000,5.5056,0.0079
33.1300,0.2736,-0.0017,0.0000,5.5055,0.0081
33.1400,0.2736,-0.0017,0.0000,5.5054,0.0086
33.1500,0.2736,-0.0017,0.0000,5.5053,0.0085
33.1600,0.2736,-0.0017,0.0000,5.5052,0.0092
33.1700,0.2736,-0.0017,0.0000,5.5051,0.0092
33.1800,0.2736,-0.0017,0.0000,5.5050,0.0092
33.1900,0.2736,-0.0017,0.0000,5.5049,0.0097
33.2000,0.2736,-0.0017,0.0000,5.5048,0.0097
33.2100,0.2736,-0.0017,0.0000,5.5047,0.0098
33.2200,0.2736,-0.0017,0.0000,5.5046,0.0101
33.2300,0.2736,-0.0017,0.0000,5.5045,0.0103
33.2400,0.2736,-0.0017,0.0000,5.5044,0.0103
33.2500,0.2736,-0.0017,0.0000,5.5043,0.0104
33.2600,0.2736,-0.0017,0.0000,5.5042,0.0104
33.2700,0.2736,-0.0017,0.0000,5.5041,0.0104
33.2800,0.2736,-0.0017,0.0000,5.5040,0.0106
33.2900,0.2736,-0.0017,0.0000,5.5039,0.0107
33.3000,0.2736,-0.0017,0.0000,5.5038,0.0107
33.3100,0.2736,-0.0017,0.0000,5.5037,0.0110
33.3200,0.2736,-0.0017,0.0000,5.5036,0.0110
33.3300,0.2736,-0.0017,0.0000,5.5035,0.0110
33.3400,0.2736,-0.0017,0.0000,5.5034,0.0109
33.3500,0.2736,-0.0017,0.0000,5.5032,0.0110
33.3600,0.2736,-0.0017,0.0000,5.5031,0.0110
33.3700,0.2736,-0.0017,0.0000,5.5030,0.0109
33.3800,0.2736,-0.0017,0.0000,5.5029,0.0110
33.3900,0.2736,-0.0017,0.0000,5.5028,0.0110
33.4000,0.2736,-0.0017,0.0000,5.5027,0.0109
33.4100,0.2736,-0.0017,0.0000,5.5026,0.0108
33.4200,0.2736,-0.0017,0.0000,5.5025,0.0107
33.4300,0.2736,-0.0017,0.0000,5.5024,0.0101
33.4400,0.2736,-0.0017,0.0000,5.5023,0.0085
33.4500,0.2736,-0.0017,0.0000,5.5022,0.0079
33.4600,0.2736,-0.0017,0.0000,5.5021,0.0073
33.4700,0.2736,-0.0017,0.0000,5.5021,0.0072
33.4800,0.2736,-0.0017,0.0000,5.5020,0.0068
33.4900,0.2736,-0.0017,0.0000,5.5019,0.0068
33.5000,0.2736,-0.0017,0.0000,5.5019,0.0067
33.5100,0.2736,-0.0017,0.0000,5.5018,0.0067
33.5200,0.2736,-0.0017,0.0000,5.5017,0.0078
33.5300,0.2736,-0.0017,0.0000,5.5016,0.0098
33.5400,0.2736,-0.0017,0.0000,5.5015,0.0096
33.5500,0.2736,-0.0017,0.0000,5.5014,0.0093
33.5600,0.2736,-0.0017,0.0000,5.5013,0.0092
33.5700,0.2736,-0.0017,0.0000,5.5013,0.0048
33.5800,0.2736,-0.0017,0.0000,5.5013,-0.0041
33.5900,0.2736,-0.0017,0.0000,5.5014,-0.0076
33.6000,0.2736,-0.0017,0.0000,5.5015,-0.0065
33.6100,0.2736,-0.0017,0.0000,5.5015,-0.0060
33.6200,0.2736,-0.0017,0.0000,5.5016,-0.0055
33.6300,0.2736,-0.0017,0.0000,5.5016,-0.0049
33.6400,0.2736,-0.0017,0.0000,5.5017,-0.0049
33.6500,0.2736,-0.0017,0.0000,5.5017,-0.0046
33.6600,0.2736,-0.0017,0.0000,5.5018,-0.0043
33.6700,0.2736,-0.0017,0.0000,5.5018,-0.0042
33.6800,0.2736,-0.0017,0.0000,5.5019,-0.0043
33.6900,0.2736,-0.0017,0.0000,5.5019,-0.0043
33.7000,0.2736,-0.0017,0.0000,5.5019,-0.0042
33.7100,0.2736,-0.0017,0.0000,5.5020,-0.0043
33.7200,0.2736,-0.0017,0.0000,5.5020,-0.0042
33.7300,0.2736,-0.0017,0.0000,5.5021,-0.0043
33.7400,0.2736,-0.0017,0.0000,5.5021,-0.0043
33.7500,0.2736,-0.0017,0.0000,5.5022,-0.0042
33.7600,0.2736,-0.0017,0.0000,5.5022,-0.0043
33.7700,0.2736,-0.0017,0.0000,5.5022,-0.0042
33.7800,0.2736,-0.0017,0.0000,5.5023,-0.0043
33.7900,0.2736,-0.0017,0.0000,5.5023,-0.0043
33.8000,0.2736,-0.0017,0.0000,5.5024,-0.0042
33.8100,0.2736,-0.0017,0.0000,5.5024,-0.0043
33.8200,0.2736,-0.0017,0.0000,5.5025,-0.0042
33.8300,0.2736,-0.0017,0.0000,5.5025,-0.0043
33.8400,0.2736,-0.0017,0.0000,5.5025,-0.0043
33.8500,0.2736,-0.0017,0.0000,5.5026,-0.0042
33.8600,0.2736,-0.0017,0.0000,5.5026,-0.0043
33.8700,0.2736,-0.0017,0.0000,5.5027,-0.0042
33.8800,0.2736,-0.0017,0.0000,5.5027,-0.0043
33.8900,0.2736,-0.0017,0.0000,5.5028,-0.0043
33.9000,0.2736,-0.0017,0.0000,5.5028,-0.0042
33.9100,0.2736,-0.0017,0.0000,5.5028,-0.0043
33.9200,0.2736,-0.0017,0.0000,5.5029,-0.0042
33.9300,0.2736,-0.0017,0.0000,5.5029,-0.0043
33.9400,0.2736,-0.0017,0.0000,5.5030,-0.0043
33.9500,0.2736,-0.0017,0.0000,5.5030,-0.0042
33.9600,0.2736,-0.0017,0.0000,5.5031,-0.0043
33.9700,0.2736,-0.0017,0.0000,5.5031,-0.0042
33.9800,0.2736,-0.0017,0.0000,5.5032,-0.0066
33.9900,0.2736,-0.0017,0.0000,5.5032,-0.0073
34.0000,0.2736,-0.0017,0.0000,5.5033,-0.0069
34.0100,0.2736,-0.0017,0.0000,5.5034,-0.0067
34.0200,0.2736,-0.0017,0.0000,5.5034,-0.0067
34.0300,0.2736,-0.0017,0.0000,5.5035,-0.0067
34.0400,0.2736,-0.0017,0.0000,5.5036,-0.0065
34.0500,0.2736,-0.0017,0.0000,5.5036,-0.0061
34.0600,0.2736,-0.0017,0.0000,5.5037,-0.0061
34.0700,0.2736,-0.0017,0.0000,5.5038,-0.0061
34.0800,0.2736,-0.0017,0.0000,5.5038,-0.0061
34.0900,0.2736,-0.0017,0.0000,5.5039,-0.0061
34.1000,0.2736,-0.0017,0.0000,5.5039,-0.0061
34.1100,0.2736,-0.0017,0.0000,5.5040,-0.0062
34.1200,0.2736,-0.0017,0.0000,5.5041,-0.0062
34.1300,0.2736,-0.0017,0.0000,5.5041,-0.0077
34.1400,0.2736,-0.0017,0.0000,5.5042,-0.0094
34.1500,0.2736,-0.0017,0.0000,5.5043,-0.0092
34.1600,0.2736,-0.0017,0.0000,5.5044,-0.0088
34.1700,0.2736,-0.0017,0.0000,5.5045,-0.0085
34.1800,0.2736,-0.0017,0.0000,5.5046,-0.0086
34.1900,0.2736,-0.0017,0.0000,5.5047,-0.0085
34.2000,0.2736,-0.0017,0.0000,5.5048,-0.0085
34.2100,0.2736,-0.0017,0.0000,5.5048,-0.0085
34.2200,0.2736,-0.0017,0.0000,5.5049,-0.0085
34.2300,0.2736,-0.0017,0.0000,5.5050,-0.0086
34.2400,0.2736,-0.0017,0.0000,5.5051,-0.0085
34.2500,0.2736,-0.0017,0.0000,5.5052,-0.0085
34.2600,0.2736,-0.0017,0.0000,5.5053,-0.0085
34.2700,0.2736,-0.0017,0.0000,5.5054,-0.0085
34.2800,0.2736,-0.0017,0.0000,5.5054,-0.0086
34.2900,0.2736,-0.0017,0.0000,5.5055,-0.0085
34.3000,0.2736,-0.0017,0.0000,5.5056,-0.0085
34.3100,0.2736,-0.0017,0.0000,5.5057,-0.0085
34.3200,0.2736,-0.0017,0.0000,5.5058,-0.0085
34.3300,0.2736,-0.0017,0.0000,5.5059,-0.0086
34.3400,0.2736,-0.0017,0.0000,5.5060,-0.0085
34.3500,0.2736,-0.0017,0.0000,5.5060,-0.0085
34.3600,0.2736,-0.0017,0.0000,5.5061,-0.0085
34.3700,0.2736,-0.0017,0.0000,5.5062,-0.0085
34.3800,0.2736,-0.0017,0.0000,5.5063,-0.0086
34.3900,0.2736,-0.0017,0.0000,5.5064,-0.0085
34.4000,0.2736,-0.0017,0.0000,5.5065,-0.0085
34.4100,0.2736,-0.0017,0.0000,5.5065,-0.0085
34.4200,0.2736,-0.0017,0.0000,5.5066,-0.0085
34.4300,0.2736,-0.0017,0.0000,5.5067,-0.0086
34.4400,0.2736,-0.0017,0.0000,5.5068,-0.0085
34.4500,0.2736,-0.0017,0.0000,5.5069,-0.0085
34.4600,0.2736,-0.0017,0.0000,5.5070,-0.0085
34.4700,0.2736,-0.0017,0.0000,5.5071,-0.0085
34.4800,0.2736,-0.0017,0.0000,5.5071,-0.0086
34.4900,0.2736,-0.0017,0.0000,5.5072,-0.0085
34.5000,0.2736,-0.0017,0.0000,5.5073,-0.0085
34.5100,0.2736,-0.0017,0.0000,5.5074,-0.0085
34.5200,0.2736,-0.0017,0.0000,5.5075,-0.0085
34.5300,0.2736,-0.0017,0.0000,5.5076,-0.0086
34.5400,0.2736,-0.0017,0.0000,5.5077,-0.0085
34.5500,0.2736,-0.0017,0.0000,5.5077,-0.0085
34.5600,0.2736,-0.0017,0.0000,5.5078,-0.0083
34.5700,0.2736,-0.0017,0.0000,5.5079,-0.0082
34.5800,0.2736,-0.0017,0.0000,5.5080,-0.0080
34.5900,0.2736,-0.0017,0.0000,5.5081,-0.0080
34.6000,0.2736,-0.0017,0.0000,5.5081,-0.0079
34.6100,0.2736,-0.0017,0.0000,5.5082,-0.0080
34.6200,0.2736,-0.0017,0.0000,5.5083,-0.0079
34.6300,0.2736,-0.0017,0.0000,5.5084,-0.0079
34.6400,0.2736,-0.0017,0.0000,5.5085,-0.0080
34.6500,0.2736,-0.0017,0.0000,5.5085,-0.0079
34.6600,0.2736,-0.0017,0.0000,5.5086,-0.0080
34.6700,0.2736,-0.0017,0.0000,5.5087,-0.0079
34.6800,0.2736,-0.0017,0.0000,5.5088,-0.0079
34.6900,0.2736,-0.0017,0.0000,5.5089,-0.0080
34.7000,0.2736,-0.0017,0.0000,5.5089,-0.0079
34.7100,0.2736,-0.0017,0.0000,5.5090,-0.0080
34.7200,0.2736,-0.0017,0.0000,5.5091,-0.0079
34.7300,0.2736,-0.0017,0.0000,5.5092,-0.0079
34.7400,0.2736,-0.0017,0.0000,5.5093,-0.0080
34.7500,0.2736,-0.0017,0.0000,5.5093,-0.0079
34.7600,0.2736,-0.0017,0.0000,5.5094,-0.0080
34.7700,0.2736,-0.0017,0.0000,5.5095,-0.0079
34.7800,0.2736,-0.0017,0.0000,5.5096,-0.0079
34.7900,0.2736,-0.0017,0.0000,5.5097,-0.0078
34.8000,0.2736,-0.0017,0.0000,5.5097,-0.0075
34.8100,0.2736,-0.0017,0.0000,5.5098,-0.0075
34.8200,0.2736,-0.0017,0.0000,5.5099,-0.0074
34.8300,0.2736,-0.0017,0.0000,5.5100,-0.0073
34.8400,0.2736,-0.0017,0.0000,5.5100,-0.0073
34.8500,0.2736,-0.0017,0.0000,5.5101,-0.0073
34.8600,0.2736,-0.0017,0.0000,5.5102,-0.0073
34.8700,0.2736,-0.0017,0.0000,5.5102,-0.0073
34.8800,0.2736,-0.0017,0.0000,5.5103,-0.0073
34.8900,0.2736,-0.0017,0.0000,5.5104,-0.0073
34.9000,0.2736,-0.0017,0.0000,5.5105,-0.0073
34.9100,0.2736,-0.0017,0.0000,5.5105,-0.0073
34.9200,0.2736,-0.0017,0.0000,5.5106,-0.0073
34.9300,0.2736,-0.0017,0.0000,5.5107,-0.0073
34.9400,0.2736,-0.0017,0.0000,5.5108,-0.0073
34.9500,0.2736,-0.0017,0.0000,5.5108,-0.0073
34.9600,0.2736,-0.0017,0.0000,5.5109,-0.0073
34.9700,0.2736,-0.0017,0.0000,5.5110,-0.0073
34.9800,0.2736,-0.0017,0.0000,5.5111,-0.0073
34.9900,0.2736,-0.0017,0.0000,5.5111,-0.0073
35.0000,0.2736,-0.0017,0.0000,5.5112,-0.0073
35.0100,0.2736,-0.0017,0.0000,5.5113,-0.0073
35.0200,0.2736,-0.0017,0.0000,5.5113,-0.0073
35.0300,0.2736,-0.0017,0.0000,5.5114,-0.0073
35.0400,0.2736,-0.0017,0.0000,5.5115,-0.0072
35.0500,0.2736,-0.0017,0.0000,5.5116,-0.0071
35.0600,0.2736,-0.0017,0.0000,5.5116,-0.0063
35.0700,0.2736,-0.0017,0.0000,5.5117,-0.0061
35.0800,0.2736,-0.0017,0.0000,5.5117,-0.0060
35.0900,0.2736,-0.0017,0.0000,5.5118,-0.0058
35.1000,0.2736,-0.0017,0.0000,5.5119,-0.0057
35.1100,0.2736,-0.0017,0.0000,5.5119,-0.0056
35.1200,0.2736,-0.0017,0.0000,5.5120,-0.0056
35.1300,0.2736,-0.0017,0.0000,5.5120,-0.0057
35.1400,0.2736,-0.0017,0.0000,5.5121,-0.0057
35.1500,0.2736,-0.0017,0.0000,5.5121,-0.0056
35.1600,0.2736,-0.0017,0.0000,5.5122,-0.0055
35.1700,0.2736,-0.0017,0.0000,5.5123,-0.0058
35.1800,0.2736,-0.0017,0.0000,5.5123,-0.0057
35.1900,0.2736,-0.0017,0.0000,5.5124,-0.0056
35.2000,0.2736,-0.0017,0.0000,5.5124,-0.0056
35.2100,0.2736,-0.0017,0.0000,5.5125,-0.0057
35.2200,0.2736,-0.0017,0.0000,5.5125,-0.0057
35.2300,0.2736,-0.0017,0.0000,5.5126,-0.0055
35.2400,0.2736,-0.0017,0.0000,5.5127,-0.0056
35.2500,0.2736,-0.0017,0.0000,5.5127,-0.0056
35.2600,0.2736,-0.0017,0.0000,5.5128,-0.0056
35.2700,0.2736,-0.0017,0.0000,5.5128,-0.0055
35.2800,0.2736,-0.0017,0.0000,5.5129,-0.0055
35.2900,0.2736,-0.0017,0.0000,5.5129,-0.0055
35.3000,0.2736,-0.0017,0.0000,5.5130,-0.0055
35.3100,0.2736,-0.0017,0.0000,5.5130,-0.0055
35.3200,0.2736,-0.0017,0.0000,5.5131,-0.0055
35.3300,0.2736,-0.0017,0.0000,5.5131,-0.0055
35.3400,0.2736,-0.0017,0.0000,5.5132,-0.0055
35.3500,0.2736,-0.0017,0.0000,5.5133,-0.0055
35.3600,0.2736,-0.0017,0.0000,5.5133,-0.0055
35.3700,0.2736,-0.0017,0.0000,5.5134,-0.0055
35.3800,0.2736,-0.0017,0.0000,5.5134,-0.0055
35.3900,0.2736,-0.0017,0.0000,5.5135,-0.0055
35.4000,0.2736,-0.0017,0.0000,5.5135,-0.0055
35.4100,0.2736,-0.0017,0.0000,5.5136,-0.0055
35.4200,0.2736,-0.0017,0.0000,5.5136,-0.0055
35.4300,0.2736,-0.0017,0.0000,5.5137,-0.0055
35.4400,0.2736,-0.0017,0.0000,5.5138,-0.0055
35.4500,0.2736,-0.0017,0.0000,5.5138,-0.0055
35.4600,0.2736,-0.0017,0.0000,5.5139,-0.0055
35.4700,0.2736,-0.0017,0.0000,5.5139,-0.0055
35.4800,0.2736,-0.0017,0.0000,5.5140,-0.0055
35.4900,0.2736,-0.0017,0.0000,5.5140,-0.0055
35.5000,0.2736,-0.0017,0.0000,5.5141,-0.0055
35.5100,0.2736,-0.0017,0.0000,5.5141,-0.0055
35.5200,0.2736,-0.0017,0.0000,5.5142,-0.0055
35.5300,0.2736,-0.0017,0.0000,5.5142,-0.0055
35.5400,0.2736,-0.0017,0.0000,5.5143,-0.0055
35.5500,0.2736,-0.0017,0.0000,5.5144,-0.0055
35.5600,0.2736,-0.0017,0.0000,5.5144,-0.0055
35.5700,0.2736,-0.0017,0.0000,5.5145,-0.0055
35.5800,0.2736,-0.0017,0.0000,5.5145,-0.0054
35.5900,0.2736,-0.0017,0.0000,5.5146,-0.0052
35.6000,0.2736,-0.0017,0.0000,5.5146,-0.0050
35.6100,0.2736,-0.0017,0.0000,5.5147,-0.0044
35.6200,0.2736,-0.0017,0.0000,5.5147,-0.0048
35.6300,0.2736,-0.0017,0.0000,5.5148,-0.0049
35.6400,0.2736,-0.0017,0.0000,5.5148,-0.0049
35.6500,0.2736,-0.0017,0.0000,5.5149,-0.0049
35.6600,0.2736,-0.0017,0.0000,5.5149,-0.0049
35.6700,0.2736,-0.0017,0.0000,5.5150,-0.0049
35.6800,0.2736,-0.0017,0.0000,5.5150,-0.0049
35.6900,0.2736,-0.0017,0.0000,5.5151,-0.0047
35.7000,0.2736,-0.0017,0.0000,5.5151,-0.0046
35.7100,0.2736,-0.0017,0.0000,5.5151,-0.0046
35.7200,0.2736,-0.0017,0.0000,5.5152,-0.0045
35.7300,0.2736,-0.0017,0.0000,5.5152,-0.0044
35.7400,0.2736,-0.0017,0.0000,5.5153,-0.0044
35.7500,0.2736,-0.0017,0.0000,5.5153,-0.0043
35.7600,0.2736,-0.0017,0.0000,5.5154,-0.0042
35.7700,0.2736,-0.0017,0.0000,5.5154,-0.0043
35.7800,0.2736,-0.0017,0.0000,5.5155,-0.0043
35.7900,0.2736,-0.0017,0.0000,5.5155,-0.0042
35.8000,0.2736,-0.0017,0.0000,5.5155,-0.0043
35.8100,0.2736,-0.0017,0.0000,5.5156,-0.0042
35.8200,0.2736,-0.0017,0.0000,5.5156,-0.0043
35.8300,0.2736,-0.0017,0.0000,5.5157,-0.0033
35.8400,0.2736,-0.0017,0.0000,5.5157,-0.0031
35.8500,0.2736,-0.0017,0.0000,5.5157,-0.0031
35.8600,0.2736,-0.0017,0.0000,5.5157,-0.0031
