time_s,throttle,throttle_delta,brake,speed,accel_x
10.0500,0.3235,-0.0090,0.0000,5.5916,0.0071
10.0600,0.3235,-0.0090,0.0000,5.5103,0.0194
10.0700,0.3235,-0.0090,0.0000,5.5783,0.0143
10.0800,0.3235,-0.0090,0.0000,5.4732,0.0014
10.0900,0.3235,-0.0090,0.0000,5.5920,0.0059
10.1000,0.3235,-0.0090,0.0000,5.5110,0.0182
10.1100,0.3235,-0.0090,0.0000,5.5791,0.0134
10.1200,0.3235,-0.0090,0.0000,5.4741,0.0008
10.1300,0.3235,-0.0090,0.0000,5.5932,0.0057
10.1400,0.3235,-0.0090,0.0000,5.5125,0.0186
10.1500,0.3235,-0.0090,0.0000,5.5806,0.0144
10.1600,0.3235,-0.0090,0.0000,5.4758,0.0024
10.1700,0.3235,-0.0090,0.0000,5.5951,0.0079
10.1800,0.3235,-0.0090,0.0000,5.5146,0.0214
10.1900,0.3235,-0.0090,0.0000,5.5827,0.0176
10.2000,0.3235,-0.0090,0.0000,5.4779,0.0060
10.2100,0.3235,-0.0090,0.0000,5.5975,0.0120
10.2200,0.3235,-0.0090,0.0000,5.5172,0.0259
10.2300,0.3235,-0.0090,0.0000,5.5852,0.0224
10.2400,0.3235,-0.0090,0.0000,5.4805,0.0109
10.2500,0.3235,-0.0090,0.0000,5.6002,0.0171
10.2600,0.3235,-0.0090,0.0000,5.5200,0.0313
10.2700,0.3235,-0.0090,0.0000,5.5880,0.0278
10.2800,0.3235,-0.0090,0.0000,5.4833,0.0165
10.2900,0.3235,-0.0090,0.0000,5.6031,0.0227
10.3000,0.3235,-0.0090,0.0000,5.5231,0.0370
10.3100,0.3235,-0.0090,0.0000,5.5910,0.0336
10.3200,0.3235,-0.0090,0.0000,5.4864,0.0222
10.3300,0.3235,-0.0090,0.0000,5.6061,0.0284
10.3400,0.3235,-0.0090,0.0000,5.5262,0.0427
10.3500,0.3235,-0.0090,0.0000,5.5941,0.0393
10.3600,0.3235,-0.0090,0.0000,5.4895,0.0278
10.3700,0.3235,-0.0090,0.0000,5.6091,0.0339
10.3800,0.3235,-0.0090,0.0000,5.5292,0.0480
10.3900,0.3235,-0.0090,0.0000,5.5971,0.0444
10.4000,0.3235,-0.0090,0.0000,5.4926,0.0328
10.4100,0.3235,-0.0090,0.0000,5.6121,0.0387
10.4200,0.3235,-0.0090,0.0000,5.5322,0.0527
10.4300,0.3235,-0.0090,0.0000,5.6001,0.0490
10.4400,0.3235,-0.0090,0.0000,5.4957,0.0372
10.4500,0.3235,-0.0090,0.0000,5.6150,0.0429
10.4600,0.3235,-0.0090,0.0000,5.5351,0.0567
10.4700,0.3235,-0.0090,0.0000,5.6030,0.0528
10.4800,0.3235,-0.0090,0.0000,5.4987,0.0408
10.4900,0.3235,-0.0090,0.0000,5.6179,0.0464
10.5000,0.3235,-0.0090,0.0000,5.5380,0.0600
10.5100,0.3235,-0.0090,0.0000,5.6059,0.0560
10.5200,0.3235,-0.0090,0.0000,5.5017,0.0439
10.5300,0.3235,-0.0090,0.0000,5.6207,0.0493
10.5400,0.3235,-0.0090,0.0000,5.5408,0.0627
10.5500,0.3235,-0.0090,0.0000,5.6087,0.0586
10.5600,0.3235,-0.0090,0.0000,5.5046,0.0465
10.5700,0.3235,-0.0090,0.0000,5.6235,0.0518
10.5800,0.3235,-0.0090,0.0000,5.5437,0.0650
10.5900,0.3235,-0.0090,0.0000,5.6116,0.0608
10.6000,0.3235,-0.0090,0.0000,5.5075,0.0486
10.6100,0.3235,-0.0090,0.0000,5.6263,0.0538
10.6200,0.3235,-0.0090,0.0000,5.5466,0.0669
10.6300,0.3235,-0.0090,0.0000,5.6145,0.0626
10.6400,0.3235,-0.0090,0.0000,5.5105,0.0504
10.6500,0.3235,-0.0090,0.0000,5.6292,0.0556
10.6600,0.3235,-0.0090,0.0000,5.5494,0.0686
10.6700,0.3235,-0.0090,0.0000,5.6173,0.0643
10.6800,0.3235,-0.0090,0.0000,5.5134,0.0520
10.6900,0.3235,-0.0090,0.0000,5.6320,0.0571
10.7000,0.3235,-0.0090,0.0000,5.5522,0.0701
10.7100,0.3235,-0.0090,0.0000,5.6201,0.0657
10.7200,0.3235,-0.0090,0.0000,5.5163,0.0534
10.7300,0.3235,-0.0090,0.0000,5.6347,0.0583
10.7400,0.3235,-0.0090,0.0000,5.5549,0.0712
10.7500,0.3235,-0.0090,0.0000,5.6229,0.0667
10.7600,0.3235,-0.0090,0.0000,5.5191,0.0544
10.7700,0.3235,-0.0090,0.0000,5.6373,0.0593
10.7800,0.3235,-0.0090,0.0000,5.5575,0.0720
10.7900,0.3235,-0.0090,0.0000,5.6255,0.0675
10.8000,0.3235,-0.0090,0.0000,5.5219,0.0551
10.8100,0.3235,-0.0090,0.0000,5.6400,0.0599
10.8200,0.3235,-0.0090,0.0000,5.5602,0.0725
10.8300,0.3235,-0.0090,0.0000,5.6281,0.0679
10.8400,0.3235,-0.0090,0.0000,5.5245,0.0555
10.8500,0.3235,-0.0090,0.0000,5.6425,0.0602
10.8600,0.3235,-0.0090,0.0000,5.5628,0.0728
10.8700,0.3235,-0.0090,0.0000,5.6307,0.0682
10.8800,0.3235,-0.0090,0.0000,5.5272,0.0558
10.8900,0.3235,-0.0090,0.0000,5.6451,0.0605
10.9000,0.3235,-0.0090,0.0000,5.5654,0.0730
10.9100,0.3235,-0.0090,0.0000,5.6333,0.0683
10.9200,0.3235,-0.0090,0.0000,5.5299,0.0559
10.9300,0.3235,-0.0090,0.0000,5.6476,0.0606
10.9400,0.3235,-0.0090,0.0000,5.5679,0.0730
10.9500,0.3235,-0.0090,0.0000,5.6358,0.0683
10.9600,0.3235,-0.0090,0.0000,5.5325,0.0559
10.9700,0.3235,-0.0090,0.0000,5.6501,0.0605
10.9800,0.3235,-0.0090,0.0000,5.5704,0.0729
10.9900,0.3235,-0.0090,0.0000,5.6384,0.0682
11.0000,0.3235,-0.0090,0.0000,5.5351,0.0558
11.0100,0.3235,-0.0090,0.0000,5.6525,0.0604
11.0200,0.3235,-0.0090,0.0000,5.5728,0.0726
11.0300,0.3235,-0.0090,0.0000,5.6407,0.0679
11.0400,0.3235,-0.0090,0.0000,5.5376,0.0556
11.0500,0.3235,-0.0090,0.0000,5.6549,0.0601
11.0600,0.3235,-0.0090,0.0000,5.5752,0.0723
11.0700,0.3235,-0.0090,0.0000,5.6431,0.0676
11.0800,0.3235,-0.0090,0.0000,5.5400,0.0552
11.0900,0.3235,-0.0090,0.0000,5.6572,0.0596
11.1000,0.3235,-0.0090,0.0000,5.5775,0.0718
11.1100,0.3235,-0.0090,0.0000,5.6455,0.0671
11.1200,0.3235,-0.0090,0.0000,5.5425,0.0547
11.1300,0.3235,-0.0090,0.0000,5.6595,0.0592
11.1400,0.3235,-0.0090,0.0000,5.5799,0.0713
11.1500,0.3235,-0.0090,0.0000,5.6479,0.0666
11.1600,0.3235,-0.0090,0.0000,5.5449,0.0543
11.1700,0.3235,-0.0090,0.0000,5.6619,0.0587
11.1800,0.3235,-0.0090,0.0000,5.5823,0.0709
11.1900,0.3235,-0.0090,0.0000,5.6502,0.0662
11.2000,0.3235,-0.0090,0.0000,5.5473,0.0539
11.2100,0.3235,-0.0090,0.0000,5.6642,0.0583
11.2200,0.3235,-0.0090,0.0000,5.5846,0.0704
11.2300,0.3235,-0.0090,0.0000,5.6526,0.0658
11.2400,0.3235,-0.0090,0.0000,5.5497,0.0535
11.2500,0.3235,-0.0090,0.0000,5.6665,0.0579
11.2600,0.3235,-0.0090,0.0000,5.5869,0.0700
11.2700,0.3235,-0.0090,0.0000,5.6549,0.0653
11.2800,0.3235,-0.0090,0.0000,5.5521,0.0531
11.2900,0.3235,-0.0090,0.0000,5.6687,0.0575
11.3000,0.3235,-0.0090,0.0000,5.5891,0.0695
11.3100,0.3235,-0.0090,0.0000,5.6570,0.0648
11.3200,0.3235,-0.0090,0.0000,5.5544,0.0525
11.3300,0.3235,-0.0090,0.0000,5.6709,0.0569
11.3400,0.3235,-0.0090,0.0000,5.5913,0.0688
11.3500,0.3235,-0.0090,0.0000,5.6593,0.0641
11.3600,0.3235,-0.0090,0.0000,5.5566,0.0519
11.3700,0.3235,-0.0090,0.0000,5.6731,0.0562
11.3800,0.3235,-0.0090,0.0000,5.5935,0.0682
11.3900,0.3235,-0.0090,0.0000,5.6615,0.0635
11.4000,0.3235,-0.0090,0.0000,5.5589,0.0513
11.4100,0.3235,-0.0090,0.0000,5.6753,0.0557
11.4200,0.3235,-0.0090,0.0000,5.5957,0.0676
11.4300,0.3235,-0.0090,0.0000,5.6637,0.0630
11.4400,0.3235,-0.0090,0.0000,5.5612,0.0509
11.4500,0.3235,-0.0090,0.0000,5.6775,0.0552
11.4600,0.3235,-0.0090,0.0000,5.5979,0.0672
11.4700,0.3235,-0.0090,0.0000,5.6659,0.0625
11.4800,0.3235,-0.0090,0.0000,5.5634,0.0504
11.4900,0.3235,-0.0090,0.0000,5.6796,0.0547
11.5000,0.3235,-0.0090,0.0000,5.6001,0.0666
11.5100,0.3235,-0.0090,0.0000,5.6681,0.0620
11.5200,0.3235,-0.0090,0.0000,5.5657,0.0499
11.5300,0.3235,-0.0090,0.0000,5.6817,0.0542
11.5400,0.3235,-0.0090,0.0000,5.6022,0.0661
11.5500,0.3235,-0.0090,0.0000,5.6702,0.0614
11.5600,0.3235,-0.0090,0.0000,5.5678,0.0494
11.5700,0.3235,-0.0090,0.0000,5.6837,0.0537
11.5800,0.3235,-0.0090,0.0000,5.6042,0.0655
11.5900,0.3235,-0.0090,0.0000,5.6722,0.0608
11.6000,0.3235,-0.0090,0.0000,5.5699,0.0487
11.6100,0.3235,-0.0090,0.0000,5.6857,0.0530
11.6200,0.3235,-0.0090,0.0000,5.6062,0.0647
11.6300,0.3235,-0.0090,0.0000,5.6742,0.0601
11.6400,0.3235,-0.0090,0.0000,5.5720,0.0480
11.6500,0.3235,-0.0090,0.0000,5.6877,0.0523
11.6600,0.3235,-0.0090,0.0000,5.6081,0.0640
11.6700,0.3235,-0.0090,0.0000,5.6762,0.0593
11.6800,0.3235,-0.0090,0.0000,5.5741,0.0473
11.6900,0.3235,-0.0090,0.0000,5.6896,0.0515
11.7000,0.3235,-0.0090,0.0000,5.6100,0.0632
11.7100,0.3235,-0.0090,0.0000,5.6781,0.0585
11.7200,0.3235,-0.0090,0.0000,5.5761,0.0466
11.7300,0.3235,-0.0090,0.0000,5.6915,0.0507
11.7400,0.3235,-0.0090,0.0000,5.6119,0.0624
11.7500,0.3235,-0.0090,0.0000,5.6800,0.0577
11.7600,0.3235,-0.0090,0.0000,5.5780,0.0458
11.7700,0.3235,-0.0090,0.0000,5.6933,0.0500
11.7800,0.3235,-0.0090,0.0000,5.6138,0.0616
11.7900,0.3235,-0.0090,0.0000,5.6819,0.0569
11.8000,0.3235,-0.0090,0.0000,5.5800,0.0450
11.8100,0.3235,-0.0090,0.0000,5.6953,0.0492
11.8200,0.3235,-0.0090,0.0000,5.6157,0.0608
11.8300,0.3235,-0.0090,0.0000,5.6838,0.0562
11.8400,0.3235,-0.0090,0.0000,5.5819,0.0444
11.8500,0.3235,-0.0090,0.0000,5.6971,0.0486
11.8600,0.3235,-0.0090,0.0000,5.6176,0.0602
11.8700,0.3235,-0.0090,0.0000,5.6857,0.0556
11.8800,0.3235,-0.0090,0.0000,5.5839,0.0438
11.8900,0.3235,-0.0090,0.0000,5.6990,0.0480
11.9000,0.3235,-0.0090,0.0000,5.6195,0.0596
11.9100,0.3235,-0.0090,0.0000,5.6876,0.0550
11.9200,0.3235,-0.0090,0.0000,5.5858,0.0432
11.9300,0.3235,-0.0090,0.0000,5.7009,0.0475
11.9400,0.3235,-0.0090,0.0000,5.6214,0.0591
11.9500,0.3235,-0.0090,0.0000,5.6895,0.0545
11.9600,0.3235,-0.0090,0.0000,5.5878,0.0428
11.9700,0.3235,-0.0090,0.0000,5.7026,0.0470
11.9800,0.3235,-0.0090,0.0000,5.6232,0.0585
11.9900,0.3235,-0.0090,0.0000,5.6912,0.0540
12.0000,0.3235,-0.0090,0.0000,5.5895,0.0422
12.0100,0.3235,-0.0090,0.0000,5.7044,0.0464
12.0200,0.3235,-0.0090,0.0000,5.6250,0.0579
12.0300,0.3235,-0.0090,0.0000,5.6930,0.0534
12.0400,0.3235,-0.0090,0.0000,5.5914,0.0416
12.0500,0.3235,-0.0090,0.0000,5.7062,0.0458
12.0600,0.3235,-0.0090,0.0000,5.6268,0.0573
12.0700,0.3235,-0.0090,0.0000,5.6948,0.0528
12.0800,0.3235,-0.0090,0.0000,5.5933,0.0410
12.0900,0.3235,-0.0090,0.0000,5.7078,0.0452
12.1000,0.3235,-0.0090,0.0000,5.6284,0.0567
12.1100,0.3235,-0.0090,0.0000,5.6965,0.0521
12.1200,0.3235,-0.0090,0.0000,5.5950,0.0404
12.1300,0.3235,-0.0090,0.0000,5.7095,0.0445
12.1400,0.3235,-0.0090,0.0000,5.6300,0.0559
12.1500,0.3235,-0.0090,0.0000,5.6982,0.0514
12.1600,0.3235,-0.0090,0.0000,5.5967,0.0396
12.1700,0.3235,-0.0090,0.0000,5.7112,0.0438
12.1800,0.3235,-0.0090,0.0000,5.6317,0.0551
12.1900,0.3235,-0.0090,0.0000,5.6999,0.0506
12.2000,0.3235,-0.0090,0.0000,5.5985,0.0390
12.2100,0.3235,-0.0090,0.0000,5.7128,0.0431
12.2200,0.3235,-0.0090,0.0000,5.6334,0.0545
12.2300,0.3235,-0.0090,0.0000,5.7015,0.0500
12.2400,0.3235,-0.0090,0.0000,5.6002,0.0384
12.2500,0.3235,-0.0090,0.0000,5.7144,0.0426
12.2600,0.3235,-0.0090,0.0000,5.6350,0.0539
12.2700,0.3235,-0.0090,0.0000,5.7031,0.0494
12.2800,0.3235,-0.0090,0.0000,5.6019,0.0378
12.2900,0.3235,-0.0090,0.0000,5.7160,0.0419
12.3000,0.3235,-0.0090,0.0000,5.6365,0.0532
12.3100,0.3235,-0.0090,0.0000,5.7047,0.0487
12.3200,0.3235,-0.0090,0.0000,5.6035,0.0371
12.3300,0.3235,-0.0090,0.0000,5.7176,0.0413
12.3400,0.3235,-0.0090,0.0000,5.6382,0.0525
12.3500,0.3235,-0.0090,0.0000,5.7063,0.0481
12.3600,0.3235,-0.0090,0.0000,5.6052,0.0365
12.3700,0.3235,-0.0090,0.0000,5.7191,0.0407
12.3800,0.3235,-0.0090,0.0000,5.6397,0.0519
12.3900,0.3235,-0.0090,0.0000,5.7079,0.0475
12.4000,0.3235,-0.0090,0.0000,5.6068,0.0360
12.4100,0.3235,-0.0090,0.0000,5.7207,0.0401
12.4200,0.3235,-0.0090,0.0000,5.6412,0.0513
12.4300,0.3235,-0.0090,0.0000,5.7094,0.0469
12.4400,0.3235,-0.0090,0.0000,5.6084,0.0354
12.4500,0.3235,-0.0090,0.0000,5.7222,0.0395
12.4600,0.3235,-0.0090,0.0000,5.6428,0.0508
12.4700,0.3235,-0.0090,0.0000,5.7110,0.0463
12.4800,0.3235,-0.0090,0.0000,5.6100,0.0349
12.4900,0.3235,-0.0090,0.0000,5.7237,0.0390
12.5000,0.3235,-0.0090,0.0000,5.6443,0.0502
12.5100,0.3235,-0.0090,0.0000,5.7126,0.0459
12.5200,0.3235,-0.0090,0.0000,5.6116,0.0344
12.5300,0.3235,-0.0090,0.0000,5.7254,0.0386
12.5400,0.3235,-0.0090,0.0000,5.6460,0.0499
12.5500,0.3235,-0.0090,0.0000,5.7142,0.0455
12.5600,0.3235,-0.0090,0.0000,5.6133,0.0342
12.5700,0.3235,-0.0090,0.0000,5.7269,0.0383
12.5800,0.3235,-0.0090,0.0000,5.6476,0.0496
12.5900,0.3235,-0.0090,0.0000,5.7158,0.0453
12.6000,0.3235,-0.0090,0.0000,5.6150,0.0340
12.6100,0.3235,-0.0090,0.0000,5.7285,0.0382
12.6200,0.3235,-0.0090,0.0000,5.6491,0.0494
12.6300,0.3235,-0.0090,0.0000,5.7173,0.0451
12.6400,0.3235,-0.0090,0.0000,5.6165,0.0338
12.6500,0.3235,-0.0090,0.0000,5.7300,0.0379
12.6600,0.3235,-0.0090,0.0000,5.6506,0.0491
12.6700,0.3235,-0.0090,0.0000,5.7188,0.0447
12.6800,0.3235,-0.0090,0.0000,5.6180,0.0334
12.6900,0.3235,-0.0090,0.0000,5.7314,0.0375
12.7000,0.3235,-0.0090,0.0000,5.6519,0.0485
12.7100,0.3235,-0.0090,0.0000,5.7202,0.0442
12.7200,0.3235,-0.0090,0.0000,5.6195,0.0328
12.7300,0.3235,-0.0090,0.0000,5.7327,0.0369
12.7400,0.3235,-0.0090,0.0000,5.6533,0.0479
12.7500,0.3235,-0.0090,0.0000,5.7216,0.0435
12.7600,0.3235,-0.0090,0.0000,5.6209,0.0322
12.7700,0.3235,-0.0090,0.0000,5.7342,0.0362
12.7800,0.3235,-0.0090,0.0000,5.6548,0.0473
12.7900,0.3235,-0.0090,0.0000,5.7230,0.0429
12.8000,0.3235,-0.0090,0.0000,5.6224,0.0316
12.8100,0.3235,-0.0090,0.0000,5.7355,0.0357
12.8200,0.3235,-0.0090,0.0000,5.6561,0.0467
12.8300,0.3235,-0.0090,0.0000,5.7244,0.0424
12.8400,0.3235,-0.0090,0.0000,5.6239,0.0311
12.8500,0.3235,-0.0090,0.0000,5.7369,0.0352
12.8600,0.3235,-0.0090,0.0000,5.6575,0.0462
12.8700,0.3235,-0.0090,0.0000,5.7258,0.0419
12.8800,0.3235,-0.0090,0.0000,5.6253,0.0307
12.8900,0.3235,-0.0090,0.0000,5.7383,0.0347
12.9000,0.3235,-0.0090,0.0000,5.6588,0.0457
12.9100,0.3235,-0.0090,0.0000,5.7272,0.0414
12.9200,0.3235,-0.0090,0.0000,5.6267,0.0302
12.9300,0.3235,-0.0090,0.0000,5.7396,0.0343
12.9400,0.3235,-0.0090,0.0000,5.6601,0.0452
12.9500,0.3235,-0.0090,0.0000,5.7285,0.0409
12.9600,0.3235,-0.0090,0.0000,5.6281,0.0297
12.9700,0.3235,-0.0090,0.0000,5.7409,0.0337
12.9800,0.3235,-0.0090,0.0000,5.6614,0.0447
12.9900,0.3235,-0.0090,0.0000,5.7298,0.0403
13.0000,0.3235,-0.0090,0.0000,5.6294,0.0292
13.0100,0.3235,-0.0090,0.0000,5.7422,0.0332
13.0200,0.3235,-0.0090,0.0000,5.6628,0.0441
13.0300,0.3235,-0.0090,0.0000,5.7311,0.0398
13.0400,0.3235,-0.0090,0.0000,5.6309,0.0288
13.0500,0.3235,-0.0090,0.0000,5.7434,0.0328
13.0600,0.3235,-0.0090,0.0000,5.6641,0.0437
13.0700,0.3235,-0.0090,0.0000,5.7324,0.0394
13.0800,0.3235,-0.0090,0.0000,5.6322,0.0284
13.0900,0.3235,-0.0090,0.0000,5.7447,0.0324
13.1000,0.3235,-0.0090,0.0000,5.6654,0.0434
13.1100,0.3235,-0.0090,0.0000,5.7337,0.0391
13.1200,0.3235,-0.0090,0.0000,5.6337,0.0281
13.1300,0.3235,-0.0090,0.0000,5.7460,0.0321
13.1400,0.3235,-0.0090,0.0000,5.6666,0.0429
13.1500,0.3235,-0.0090,0.0000,5.7350,0.0387
13.1600,0.3235,-0.0090,0.0000,5.6349,0.0277
13.1700,0.3235,-0.0090,0.0000,5.7472,0.0317
13.1800,0.3235,-0.0090,0.0000,5.6678,0.0425
13.1900,0.3235,-0.0090,0.0000,5.7362,0.0382
13.2000,0.3235,-0.0090,0.0000,5.6362,0.0272
13.2100,0.3235,-0.0090,0.0000,5.7484,0.0311
13.2200,0.3235,-0.0090,0.0000,5.6689,0.0418
13.2300,0.3235,-0.0090,0.0000,5.7374,0.0376
13.2400,0.3235,-0.0090,0.0000,5.6373,0.0266
13.2500,0.3235,-0.0090,0.0000,5.7495,0.0306
13.2600,0.3235,-0.0090,0.0000,5.6701,0.0413
13.2700,0.3235,-0.0090,0.0000,5.7386,0.0370
13.2800,0.3235,-0.0090,0.0000,5.6386,0.0261
13.2900,0.3235,-0.0090,0.0000,5.7508,0.0300
13.3000,0.3235,-0.0090,0.0000,5.6713,0.0408
13.3100,0.3235,-0.0090,0.0000,5.7398,0.0366
13.3200,0.3235,-0.0090,0.0000,5.6398,0.0257
13.3300,0.3235,-0.0090,0.0000,5.7520,0.0297
13.3400,0.3235,-0.0090,0.0000,5.6726,0.0404
13.3500,0.3235,-0.0090,0.0000,5.7410,0.0362
13.3600,0.3235,-0.0090,0.0000,5.6411,0.0253
13.3700,0.3235,-0.0090,0.0000,5.7532,0.0294
13.3800,0.3235,-0.0090,0.0000,5.6738,0.0401
13.3900,0.3235,-0.0090,0.0000,5.7422,0.0359
13.4000,0.3235,-0.0090,0.0000,5.6424,0.0251
13.4100,0.3235,-0.0090,0.0000,5.7543,0.0291
13.4200,0.3235,-0.0090,0.0000,5.6749,0.0398
13.4300,0.3235,-0.0090,0.0000,5.7434,0.0356
13.4400,0.3235,-0.0090,0.0000,5.6436,0.0248
13.4500,0.3235,-0.0090,0.0000,5.7555,0.0288
13.4600,0.3235,-0.0090,0.0000,5.6761,0.0395
13.4700,0.3235,-0.0090,0.0000,5.7446,0.0354
13.4800,0.3235,-0.0090,0.0000,5.6448,0.0245
13.4900,0.3235,-0.0090,0.0000,5.7566,0.0285
13.5000,0.3235,-0.0090,0.0000,5.6773,0.0392
13.5100,0.3235,-0.0090,0.0000,5.7458,0.0350
13.5200,0.3235,-0.0090,0.0000,5.6460,0.0242
13.5300,0.3235,-0.0090,0.0000,5.7578,0.0282
13.5400,0.3235,-0.0090,0.0000,5.6784,0.0388
13.5500,0.3235,-0.0090,0.0000,5.7469,0.0347
13.5600,0.3235,-0.0090,0.0000,5.6472,0.0238
13.5700,0.3235,-0.0090,0.0000,5.7589,0.0278
13.5800,0.3235,-0.0090,0.0000,5.6795,0.0384
13.5900,0.3235,-0.0090,0.0000,5.7480,0.0343
13.6000,0.3235,-0.0090,0.0000,5.6483,0.0235
13.6100,0.3235,-0.0090,0.0000,5.7600,0.0275
13.6200,0.3235,-0.0090,0.0000,5.6806,0.0381
13.6300,0.3235,-0.0090,0.0000,5.7491,0.0339
13.6400,0.3235,-0.0090,0.0000,5.6495,0.0232
13.6500,0.3235,-0.0090,0.0000,5.7611,0.0271
13.6600,0.3235,-0.0090,0.0000,5.6817,0.0377
13.6700,0.3235,-0.0090,0.0000,5.7502,0.0336
13.6800,0.3235,-0.0090,0.0000,5.6506,0.0228
13.6900,0.3235,-0.0090,0.0000,5.7621,0.0268
13.7000,0.3235,-0.0090,0.0000,5.6827,0.0373
13.7100,0.3235,-0.0090,0.0000,5.7513,0.0332
13.7200,0.3235,-0.0090,0.0000,5.6517,0.0224
13.7300,0.3235,-0.0090,0.0000,5.7632,0.0264
13.7400,0.3235,-0.0090,0.0000,5.6838,0.0369
13.7500,0.3235,-0.0090,0.0000,5.7523,0.0328
13.7600,0.3235,-0.0090,0.0000,5.6528,0.0220
13.7700,0.3235,-0.0090,0.0000,5.7642,0.0260
13.7800,0.3235,-0.0090,0.0000,5.6848,0.0365
13.7900,0.3235,-0.0090,0.0000,5.7534,0.0324
13.8000,0.3235,-0.0090,0.0000,5.6539,0.0217
13.8100,0.3235,-0.0090,0.0000,5.7652,0.0256
13.8200,0.3235,-0.0090,0.0000,5.6858,0.0361
13.8300,0.3235,-0.0090,0.0000,5.7544,0.0320
13.8400,0.3235,-0.0090,0.0000,5.6549,0.0213
13.8500,0.3235,-0.0090,0.0000,5.7661,0.0252
13.8600,0.3235,-0.0090,0.0000,5.6867,0.0357
13.8700,0.3235,-0.0090,0.0000,5.7553,0.0316
13.8800,0.3235,-0.0090,0.0000,5.6559,0.0209
13.8900,0.3235,-0.0090,0.0000,5.7671,0.0248
13.9000,0.3235,-0.0090,0.0000,5.6877,0.0352
13.9100,0.3235,-0.0090,0.0000,5.7563,0.0311
13.9200,0.3235,-0.0090,0.0000,5.6569,0.0204
13.9300,0.3235,-0.0090,0.0000,5.7680,0.0243
13.9400,0.3235,-0.0090,0.0000,5.6886,0.0347
13.9500,0.3235,-0.0090,0.0000,5.7573,0.0306
13.9600,0.3235,-0.0090,0.0000,5.6579,0.0200
13.9700,0.3235,-0.0090,0.0000,5.7690,0.0238
13.9800,0.3235,-0.0090,0.0000,5.6895,0.0342
13.9900,0.3235,-0.0090,0.0000,5.7582,0.0301
14.0000,0.3235,-0.0090,0.0000,5.6589,0.0195
14.0100,0.3235,-0.0090,0.0000,5.7699,0.0234
14.0200,0.3235,-0.0090,0.0000,5.6904,0.0338
14.0300,0.3235,-0.0090,0.0000,5.7591,0.0297
14.0400,0.3235,-0.0090,0.0000,5.6599,0.0191
14.0500,0.3235,-0.0090,0.0000,5.7707,0.0230
14.0600,0.3235,-0.0090,0.0000,5.6913,0.0333
14.0700,0.3235,-0.0090,0.0000,5.7600,0.0292
14.0800,0.3235,-0.0090,0.0000,5.6608,0.0187
14.0900,0.3235,-0.0090,0.0000,5.7716,0.0225
14.1000,0.3235,-0.0090,0.0000,5.6922,0.0329
14.1100,0.3235,-0.0090,0.0000,5.7609,0.0288
14.1200,0.3235,-0.0090,0.0000,5.6617,0.0183
14.1300,0.3235,-0.0090,0.0000,5.7725,0.0221
14.1400,0.3235,-0.0090,0.0000,5.6931,0.0324
14.1500,0.3235,-0.0090,0.0000,5.7618,0.0284
14.1600,0.3235,-0.0090,0.0000,5.6626,0.0179
14.1700,0.3235,-0.0090,0.0000,5.7734,0.0217
14.1800,0.3235,-0.0090,0.0000,5.6939,0.0321
14.1900,0.3235,-0.0090,0.0000,5.7627,0.0280
14.2000,0.3235,-0.0090,0.0000,5.6636,0.0175
14.2100,0.3235,-0.0090,0.0000,5.7743,0.0214
14.2200,0.3235,-0.0090,0.0000,5.6948,0.0317
14.2300,0.3235,-0.0090,0.0000,5.7635,0.0277
14.2400,0.3235,-0.0090,0.0000,5.6645,0.0172
14.2500,0.3235,-0.0090,0.0000,5.7751,0.0211
14.2600,0.3235,-0.0090,0.0000,5.6957,0.0314
14.2700,0.3235,-0.0090,0.0000,5.7644,0.0274
14.2800,0.3235,-0.0090,0.0000,5.6654,0.0170
14.2900,0.3235,-0.0090,0.0000,5.7760,0.0209
14.3000,0.3235,-0.0090,0.0000,5.6965,0.0311
14.3100,0.3235,-0.0090,0.0000,5.7661,0.0274
14.3200,0.3235,-0.0090,0.0000,5.6670,0.0172
14.3300,0.3235,-0.0090,0.0000,5.7774,0.0212
14.3400,0.3235,-0.0090,0.0000,5.6977,0.0316
14.3500,0.3235,-0.0090,0.0000,5.7671,0.0279
14.3600,0.3235,-0.0090,0.0000,5.6681,0.0177
14.3700,0.3235,-0.0090,0.0000,5.7780,0.0216
14.3800,0.3235,-0.0090,0.0000,5.6991,0.0322
14.3900,0.3235,-0.0090,0.0000,5.7683,0.0285
14.4000,0.3235,-0.0090,0.0000,5.6695,0.0186
14.4100,0.3235,-0.0090,0.0000,5.7802,0.0226
14.4200,0.3235,-0.0090,0.0000,5.7010,0.0332
14.4300,0.3235,-0.0090,0.0000,5.7699,0.0296
14.4400,0.3235,-0.0090,0.0000,5.6710,0.0197
14.4500,0.3235,-0.0090,0.0000,5.7816,0.0239
14.4600,0.3235,-0.0090,0.0000,5.7023,0.0345
14.4700,0.3235,-0.0090,0.0000,5.7712,0.0311
14.4800,0.3235,-0.0090,0.0000,5.6723,0.0211
14.4900,0.3235,-0.0090,0.0000,5.7828,0.0253
14.5000,0.3235,-0.0090,0.0000,5.7034,0.0358
14.5100,0.3235,-0.0090,0.0000,5.7724,0.0320
14.5200,0.3235,-0.0090,0.0000,5.6735,0.0217
14.5300,0.3235,-0.0090,0.0000,5.7839,0.0257
14.5400,0.3235,-0.0090,0.0000,5.7046,0.0360
14.5500,0.3235,-0.0090,0.0000,5.7735,0.0321
14.5600,0.3235,-0.0090,0.0000,5.6747,0.0218
14.5700,0.3235,-0.0090,0.0000,5.7850,0.0257
14.5800,0.3235,-0.0090,0.0000,5.7056,0.0360
14.5900,0.3235,-0.0090,0.0000,5.7746,0.0320
14.6000,0.3235,-0.0090,0.0000,5.6758,0.0218
14.6100,0.3235,-0.0090,0.0000,5.7861,0.0256
14.6200,0.3235,-0.0090,0.0000,5.7067,0.0358
14.6300,0.3235,-0.0090,0.0000,5.7757,0.0319
14.6400,0.3235,-0.0090,0.0000,5.6770,0.0216
14.6500,0.3235,-0.0090,0.0000,5.7872,0.0255
14.6600,0.3235,-0.0090,0.0000,5.7077,0.0356
14.6700,0.3235,-0.0090,0.0000,5.7767,0.0317
14.6800,0.3235,-0.0090,0.0000,5.6781,0.0214
14.6900,0.3235,-0.0090,0.0000,5.7882,0.0253
14.7000,0.3235,-0.0090,0.0000,5.7088,0.0354
14.7100,0.3235,-0.0090,0.0000,5.7779,0.0315
14.7200,0.3235,-0.0090,0.0000,5.6792,0.0213
14.7300,0.3235,-0.0090,0.0000,5.7892,0.0251
14.7400,0.3235,-0.0090,0.0000,5.7097,0.0352
14.7500,0.3235,-0.0090,0.0000,5.7788,0.0312
14.7600,0.3235,-0.0090,0.0000,5.6803,0.0210
14.7700,0.3235,-0.0090,0.0000,5.7902,0.0248
14.7800,0.3235,-0.0090,0.0000,5.7107,0.0348
14.7900,0.3235,-0.0090,0.0000,5.7798,0.0309
14.8000,0.3235,-0.0090,0.0000,5.6813,0.0207
14.8100,0.3235,-0.0090,0.0000,5.7911,0.0244
14.8200,0.3235,-0.0090,0.0000,5.7118,0.0344
14.8300,0.3235,-0.0090,0.0000,5.7807,0.0304
14.8400,0.3235,-0.0090,0.0000,5.6830,0.0205
14.8500,0.3235,-0.0090,0.0000,5.7918,0.0242
14.8600,0.3235,-0.0090,0.0000,5.7128,0.0342
14.8700,0.3235,-0.0090,0.0000,5.7816,0.0302
14.8800,0.3235,-0.0090,0.0000,5.6840,0.0203
14.8900,0.3235,-0.0090,0.0000,5.7927,0.0239
14.9000,0.3235,-0.0090,0.0000,5.7138,0.0340
14.9100,0.3235,-0.0090,0.0000,5.7827,0.0300
14.9200,0.3235,-0.0090,0.0000,5.6853,0.0202
14.9300,0.3235,-0.0090,0.0000,5.7940,0.0240
14.9400,0.3235,-0.0090,0.0000,5.7147,0.0337
14.9500,0.3235,-0.0090,0.0000,5.7840,0.0300
14.9600,0.3235,-0.0090,0.0000,5.6862,0.0201
14.9700,0.3235,-0.0090,0.0000,5.7950,0.0239
14.9800,0.3235,-0.0090,0.0000,5.7156,0.0337
14.9900,0.3235,-0.0090,0.0000,5.7850,0.0300
16.9900,0.3235,-0.0090,0.0000,4.9976,0.0300
17.0000,0.3235,-0.0090,0.0000,5.0753,0.0428
17.0100,0.3235,-0.0090,0.0000,5.1217,0.0789
17.0200,0.3235,-0.0090,0.0000,5.1636,0.1205
17.0300,0.3235,-0.0090,0.0000,5.1918,0.1783
17.0400,0.3235,-0.0090,0.0000,5.2194,0.2361
17.0500,0.3235,-0.0090,0.0000,5.1749,0.2855
17.0600,0.3235,-0.0090,0.0000,5.1852,0.3292
17.0700,0.3235,-0.0090,0.0000,5.1620,0.3721
17.0800,0.3235,-0.0090,0.0000,5.1754,0.4107
17.0900,0.3235,-0.0090,0.0000,5.1443,0.4459
17.1000,0.3235,-0.0090,0.0000,5.1606,0.4594
17.1100,0.3235,-0.0090,0.0000,5.1304,0.4470
17.1200,0.3235,-0.0090,0.0000,5.1473,0.4267
17.1300,0.3235,-0.0090,0.0000,5.1175,0.3877
17.1400,0.3235,-0.0090,0.0000,5.1350,0.3467
17.1500,0.3235,-0.0090,0.0000,5.1056,0.3120
17.1600,0.3235,-0.0090,0.0000,5.1236,0.2811
17.1700,0.3235,-0.0090,0.0000,5.0947,0.2493
17.1800,0.3235,-0.0090,0.0000,5.1131,0.2202
17.1900,0.3235,-0.0090,0.0000,5.0845,0.1929
17.2000,0.3235,-0.0090,0.0000,5.1033,0.1674
17.2100,0.3235,-0.0090,0.0000,5.0752,0.1434
17.2200,0.3235,-0.0090,0.0000,5.0943,0.1210
17.2300,0.3235,-0.0090,0.0000,5.0665,0.0999
17.2400,0.3235,-0.0090,0.0000,5.0859,0.0802
17.2500,0.3235,-0.0090,0.0000,5.0583,0.0618
17.2600,0.3235,-0.0090,0.0000,5.0781,0.0446
17.2700,0.3235,-0.0090,0.0000,5.0508,0.0285
17.2800,0.3235,-0.0090,0.0000,5.0707,0.0134
17.2900,0.3235,-0.0090,0.0000,5.0440,-0.0005
17.3000,0.3235,-0.0090,0.0000,5.0635,-0.0138
17.3100,0.3235,-0.0090,0.0000,5.0374,-0.0259
17.3200,0.3235,-0.0090,0.0000,5.0569,-0.0375
17.3300,0.3235,-0.0090,0.0000,5.0308,-0.0482
17.3400,0.3235,-0.0090,0.0000,5.0509,-0.0582
17.3500,0.3235,-0.0090,0.0000,5.0247,-0.0675
17.3600,0.3235,-0.0090,0.0000,5.0452,-0.0762
17.3700,0.3235,-0.0090,0.0000,5.0191,-0.0842
17.3800,0.3235,-0.0090,0.0000,5.0398,-0.0917
17.3900,0.3235,-0.0090,0.0000,5.0138,-0.0987
17.4000,0.3235,-0.0090,0.0000,5.0348,-0.1050
17.4100,0.3235,-0.0090,0.0000,5.0088,-0.1110
17.4200,0.3235,-0.0090,0.0000,5.0299,-0.1163
17.4300,0.3235,-0.0090,0.0000,5.0041,-0.1214
17.4400,0.3235,-0.0090,0.0000,5.0253,-0.1259
17.4500,0.3235,-0.0090,0.0000,4.9996,-0.1301
17.4600,0.3235,-0.0090,0.0000,5.0761,-0.1154
17.4700,0.3235,-0.0090,0.0000,5.1203,-0.0778
17.4800,0.3235,-0.0090,0.0000,5.1625,-0.0344
17.4900,0.3235,-0.0090,0.0000,5.1863,0.0243
17.5000,0.3235,-0.0090,0.0000,5.2128,0.0828
17.5100,0.3235,-0.0090,0.0000,5.1656,0.1323
17.5200,0.3235,-0.0090,0.0000,5.1769,0.1769
17.5300,0.3235,-0.0090,0.0000,5.1517,0.2202
17.5400,0.3235,-0.0090,0.0000,5.1656,0.2597
17.5500,0.3205,-0.0119,0.0000,5.1343,0.2959
17.5600,0.3205,-0.0119,0.0000,5.1505,0.3109
17.5700,0.3205,-0.0119,0.0000,5.1201,0.3004
17.5800,0.3205,-0.0119,0.0000,5.1369,0.2819
17.5900,0.3205,-0.0119,0.0000,5.1068,0.2460
17.6000,0.3205,-0.0119,0.0000,5.1242,0.2083
17.6100,0.3205,-0.0119,0.0000,5.0946,0.1776
17.6200,0.3205,-0.0119,0.0000,5.1125,0.1502
17.6300,0.3205,-0.0119,0.0000,5.0832,0.1224
17.6400,0.3205,-0.0119,0.0000,5.1015,0.0970
17.6500,0.3205,-0.0119,0.0000,5.0727,0.0732
17.6600,0.3205,-0.0119,0.0000,5.0913,0.0510
17.6700,0.3205,-0.0119,0.0000,5.0628,0.0302
17.6800,0.3205,-0.0119,0.0000,5.0818,0.0108
17.6900,0.3205,-0.0119,0.0000,5.0537,-0.0072
17.7000,0.3205,-0.0119,0.0000,5.0729,-0.0241
17.7100,0.3205,-0.0119,0.0000,5.0451,-0.0398
17.7200,0.3205,-0.0119,0.0000,5.0646,-0.0544
17.7300,0.3205,-0.0119,0.0000,5.0371,-0.0680
17.7400,0.3205,-0.0119,0.0000,5.0569,-0.0806
17.7500,0.3205,-0.0119,0.0000,5.0295,-0.0923
17.7600,0.3205,-0.0119,0.0000,5.0495,-0.1031
17.7700,0.3205,-0.0119,0.0000,5.0224,-0.1132
17.7800,0.3205,-0.0119,0.0000,5.0426,-0.1225
17.7900,0.3205,-0.0119,0.0000,5.0157,-0.1310
17.8000,0.3205,-0.0119,0.0000,5.0361,-0.1389
17.8100,0.3205,-0.0119,0.0000,5.0094,-0.1462
17.8200,0.3205,-0.0119,0.0000,5.0300,-0.1528
17.8300,0.3205,-0.0119,0.0000,5.0034,-0.1590
17.8400,0.3205,-0.0119,0.0000,5.0241,-0.1646
17.8500,0.3205,-0.0119,0.0000,4.9977,-0.1697
17.8600,0.3205,-0.0119,0.0000,5.0731,-0.1562
17.8700,0.3205,-0.0119,0.0000,5.1156,-0.1199
17.8800,0.3205,-0.0119,0.0000,5.1579,-0.0775
17.8900,0.3205,-0.0119,0.0000,5.1775,-0.0210
17.9000,0.3205,-0.0119,0.0000,5.2018,0.0349
17.9100,0.3205,-0.0119,0.0000,5.1529,0.0816
17.9200,0.3205,-0.0119,0.0000,5.1654,0.1240
17.9300,0.3205,-0.0119,0.0000,5.1376,0.1646
17.9400,0.3205,-0.0119,0.0000,5.1519,0.2017
17.9500,0.3205,-0.0119,0.0000,5.1206,0.2359
17.9600,0.3205,-0.0119,0.0000,5.1367,0.2493
17.9700,0.3205,-0.0119,0.0000,5.1059,0.2377
17.9800,0.3205,-0.0119,0.0000,5.1227,0.2181
17.9900,0.3205,-0.0119,0.0000,5.0924,0.1824
18.0000,0.3205,-0.0119,0.0000,5.1097,0.1456
18.0100,0.3205,-0.0119,0.0000,5.0798,0.1164
18.0200,0.3205,-0.0119,0.0000,5.0976,0.0900
18.0300,0.3205,-0.0119,0.0000,5.0682,0.0639
18.0400,0.3205,-0.0119,0.0000,5.0864,0.0399
18.0500,0.3205,-0.0119,0.0000,5.0574,0.0175
18.0600,0.3205,-0.0119,0.0000,5.0760,-0.0033
18.0700,0.3205,-0.0119,0.0000,5.0474,-0.0227
18.0800,0.3205,-0.0119,0.0000,5.0663,-0.0407
18.0900,0.3205,-0.0119,0.0000,5.0381,-0.0574
18.1000,0.3205,-0.0119,0.0000,5.0573,-0.0730
18.1100,0.3205,-0.0119,0.0000,5.0302,-0.0871
18.1200,0.3205,-0.0119,0.0000,5.0501,-0.1000
18.1300,0.3205,-0.0119,0.0000,5.0207,-0.1126
18.1400,0.3205,-0.0119,0.0000,5.0410,-0.1240
18.1500,0.3205,-0.0119,0.0000,5.0132,-0.1346
18.1600,0.3205,-0.0119,0.0000,5.0333,-0.1443
18.1700,0.3205,-0.0119,0.0000,5.0058,-0.1534
18.1800,0.3205,-0.0119,0.0000,5.0261,-0.1617
18.1900,0.3205,-0.0119,0.0000,4.9989,-0.1694
18.2000,0.3205,-0.0119,0.0000,5.0733,-0.1584
18.2100,0.3205,-0.0119,0.0000,5.1142,-0.1251
18.2200,0.3205,-0.0119,0.0000,5.1567,-0.0854
18.2300,0.3205,-0.0119,0.0000,5.1728,-0.0318
18.2400,0.3205,-0.0119,0.0000,5.1954,0.0207
18.2500,0.3205,-0.0119,0.0000,5.1454,0.0640
18.2600,0.3205,-0.0119,0.0000,5.1589,0.1038
18.2700,0.3205,-0.0119,0.0000,5.1303,0.1418
18.2800,0.3205,-0.0119,0.0000,5.1435,0.1763
18.2900,0.3205,-0.0119,0.0000,5.1153,0.2092
18.3000,0.3205,-0.0119,0.0000,5.1301,0.2212
18.3100,0.3205,-0.0119,0.0000,5.1007,0.2093
18.3200,0.3205,-0.0119,0.0000,5.1169,0.1891
18.3300,0.3205,-0.0119,0.0000,5.0873,0.1543
18.3400,0.3205,-0.0119,0.0000,5.1043,0.1188
18.3500,0.3205,-0.0119,0.0000,5.0749,0.0913
18.3600,0.3205,-0.0119,0.0000,5.0926,0.0662
18.3700,0.3205,-0.0119,0.0000,5.0634,0.0417
18.3800,0.3205,-0.0119,0.0000,5.0816,0.0196
18.3900,0.3205,-0.0119,0.0000,5.0527,-0.0019
18.4000,0.3205,-0.0119,0.0000,5.0713,-0.0215
18.4100,0.3205,-0.0119,0.0000,5.0427,-0.0401
18.4200,0.3205,-0.0119,0.0000,5.0616,-0.0572
18.4300,0.3205,-0.0119,0.0000,5.0333,-0.0733
18.4400,0.3205,-0.0119,0.0000,5.0526,-0.0881
18.4500,0.3205,-0.0119,0.0000,5.0246,-0.1019
18.4600,0.3205,-0.0119,0.0000,5.0442,-0.1147
18.4700,0.3205,-0.0119,0.0000,5.0165,-0.1265
18.4800,0.3205,-0.0119,0.0000,5.0363,-0.1374
18.4900,0.3205,-0.0119,0.0000,5.0089,-0.1474
18.5000,0.3205,-0.0119,0.0000,5.0289,-0.1566
18.5100,0.3205,-0.0119,0.0000,5.0018,-0.1650
18.5200,0.3205,-0.0119,0.0000,5.0220,-0.1727
18.5300,0.3205,-0.0119,0.0000,4.9951,-0.1797
18.5400,0.3205,-0.0119,0.0000,5.0696,-0.1680
18.5500,0.3205,-0.0119,0.0000,5.1106,-0.1338
18.5600,0.3205,-0.0119,0.0000,5.1534,-0.0929
18.5700,0.3205,-0.0119,0.0000,5.1692,-0.0389
18.5800,0.3205,-0.0119,0.0000,5.1917,0.0142
18.5900,0.3205,-0.0119,0.0000,5.1421,0.0581
18.6000,0.3205,-0.0119,0.0000,5.1558,0.0984
18.6100,0.3205,-0.0119,0.0000,5.1259,0.1365
18.6200,0.3205,-0.0119,0.0000,5.1408,0.1716
18.6300,0.3205,-0.0119,0.0000,5.1095,0.2040
18.6400,0.3205,-0.0119,0.0000,5.1257,0.2159
18.6500,0.3205,-0.0119,0.0000,5.0949,0.2035
18.6600,0.3205,-0.0119,0.0000,5.1117,0.1828
18.6700,0.3205,-0.0119,0.0000,5.0814,0.1475
18.6800,0.3205,-0.0119,0.0000,5.0988,0.1116
18.6900,0.3205,-0.0119,0.0000,5.0689,0.0834
18.7000,0.3205,-0.0119,0.0000,5.0868,0.0577
18.7100,0.3205,-0.0119,0.0000,5.0575,0.0329
18.7200,0.3205,-0.0119,0.0000,5.0753,0.0100
18.7300,0.3205,-0.0119,0.0000,5.0470,-0.0112
18.7400,0.3205,-0.0119,0.0000,5.0650,-0.0310
18.7500,0.3205,-0.0119,0.0000,5.0372,-0.0492
18.7600,0.3205,-0.0119,0.0000,5.0557,-0.0663
18.7700,0.3205,-0.0119,0.0000,5.0279,-0.0819
18.7800,0.3205,-0.0119,0.0000,5.0470,-0.0964
18.7900,0.3205,-0.0119,0.0000,5.0193,-0.1097
18.8000,0.3205,-0.0119,0.0000,5.0391,-0.1219
18.8100,0.3205,-0.0119,0.0000,5.0120,-0.1330
18.8200,0.3205,-0.0119,0.0000,5.0309,-0.1434
18.8300,0.3205,-0.0119,0.0000,5.0043,-0.1528
18.8400,0.3205,-0.0119,0.0000,5.0239,-0.1615
18.8500,0.3205,-0.0119,0.0000,4.9971,-0.1694
18.8600,0.3205,-0.0119,0.0000,5.0715,-0.1585
18.8700,0.3205,-0.0119,0.0000,5.1118,-0.1253
18.8800,0.3205,-0.0119,0.0000,5.1551,-0.0851
18.8900,0.3205,-0.0119,0.0000,5.1701,-0.0320
18.9000,0.3205,-0.0119,0.0000,5.1937,0.0206
18.9100,0.3205,-0.0119,0.0000,5.1441,0.0640
18.9200,0.3205,-0.0119,0.0000,5.1586,0.1044
18.9300,0.3205,-0.0119,0.0000,5.1285,0.1424
18.9400,0.3205,-0.0119,0.0000,5.1439,0.1776
18.9500,0.3205,-0.0119,0.0000,5.1126,0.2102
18.9600,0.3205,-0.0119,0.0000,5.1290,0.2224
18.9700,0.3205,-0.0119,0.0000,5.0982,0.2105
18.9800,0.3205,-0.0119,0.0000,5.1153,0.1902
18.9900,0.3205,-0.0119,0.0000,5.0850,0.1555
19.0000,0.3205,-0.0119,0.0000,5.1025,0.1199
19.0100,0.3205,-0.0119,0.0000,5.0727,0.0920
19.0200,0.3205,-0.0119,0.0000,5.0907,0.0663
19.0300,0.3205,-0.0119,0.0000,5.0613,0.0417
19.0400,0.3205,-0.0119,0.0000,5.0797,0.0189
19.0500,0.3205,-0.0119,0.0000,5.0508,-0.0023
19.0600,0.3205,-0.0119,0.0000,5.0696,-0.0220
19.0700,0.3205,-0.0119,0.0000,5.0411,-0.0404
19.0800,0.3205,-0.0119,0.0000,5.0601,-0.0574
19.0900,0.3205,-0.0119,0.0000,5.0320,-0.0732
19.1000,0.3205,-0.0119,0.0000,5.0514,-0.0878
19.1100,0.3205,-0.0119,0.0000,5.0236,-0.1012
19.1200,0.3205,-0.0119,0.0000,5.0433,-0.1137
19.1300,0.3205,-0.0119,0.0000,5.0158,-0.1251
19.1400,0.3205,-0.0119,0.0000,5.0357,-0.1356
19.1500,0.3205,-0.0119,0.0000,5.0085,-0.1451
19.1600,0.3205,-0.0119,0.0000,5.0286,-0.1539
19.1700,0.3205,-0.0119,0.0000,5.0017,-0.1619
19.1800,0.3205,-0.0119,0.0000,5.0221,-0.1692
19.1900,0.3205,-0.0119,0.0000,4.9954,-0.1758
19.2000,0.3205,-0.0119,0.0000,5.0700,-0.1637
19.2100,0.3205,-0.0119,0.0000,5.1110,-0.1291
19.2200,0.3205,-0.0119,0.0000,5.1539,-0.0879
19.2300,0.3205,-0.0119,0.0000,5.1697,-0.0337
19.2400,0.3205,-0.0119,0.0000,5.1922,0.0196
19.2500,0.3205,-0.0119,0.0000,5.1427,0.0637
19.2600,0.3205,-0.0119,0.0000,5.1567,0.1043
19.2700,0.3205,-0.0119,0.0000,5.1269,0.1425
19.2800,0.3205,-0.0119,0.0000,5.1421,0.1778
19.2900,0.3205,-0.0119,0.0000,5.1110,0.2104
19.3000,0.3205,-0.0119,0.0000,5.1279,0.2227
19.3100,0.3205,-0.0119,0.0000,5.0969,0.2106
19.3200,0.3205,-0.0119,0.0000,5.1144,0.1904
19.3300,0.3205,-0.0119,0.0000,5.0840,0.1555
19.3400,0.3205,-0.0119,0.0000,5.1019,0.1202
19.3500,0.3205,-0.0119,0.0000,5.0720,0.0926
19.3600,0.3205,-0.0119,0.0000,5.0903,0.0674
19.3700,0.3205,-0.0119,0.0000,5.0610,0.0431
19.3800,0.3205,-0.0119,0.0000,5.0795,0.0208
19.3900,0.3205,-0.0119,0.0000,5.0507,0.0001
19.4000,0.3205,-0.0119,0.0000,5.0696,-0.0194
19.4100,0.3205,-0.0119,0.0000,5.0412,-0.0373
19.4200,0.3205,-0.0119,0.0000,5.0604,-0.0540
19.4300,0.3205,-0.0119,0.0000,5.0324,-0.0694
19.4400,0.3205,-0.0119,0.0000,5.0519,-0.0838
19.4500,0.3205,-0.0119,0.0000,5.0242,-0.0969
19.4600,0.3205,-0.0119,0.0000,5.0442,-0.1090
19.4700,0.3205,-0.0119,0.0000,5.0163,-0.1203
19.4800,0.3205,-0.0119,0.0000,5.0371,-0.1304
19.4900,0.3205,-0.0119,0.0000,5.0095,-0.1398
19.5000,0.3205,-0.0119,0.0000,5.0301,-0.1483
19.5100,0.3205,-0.0119,0.0000,5.0031,-0.1561
19.5200,0.3205,-0.0119,0.0000,5.0237,-0.1632
19.5300,0.3205,-0.0119,0.0000,4.9969,-0.1695
19.5400,0.3205,-0.0119,0.0000,5.0716,-0.1573
19.5500,0.3205,-0.0119,0.0000,5.1127,-0.1226
19.5600,0.3205,-0.0119,0.0000,5.1557,-0.0813
19.5700,0.3205,-0.0119,0.0000,5.1717,-0.0268
19.5800,0.3205,-0.0119,0.0000,5.1945,0.0265
19.5900,0.3205,-0.0119,0.0000,5.1451,0.0709
19.6000,0.3205,-0.0119,0.0000,5.1591,0.1115
19.6100,0.3205,-0.0119,0.0000,5.1294,0.1499
19.6200,0.3205,-0.0119,0.0000,5.1446,0.1852
19.6300,0.3205,-0.0119,0.0000,5.1136,0.2179
19.6400,0.3205,-0.0119,0.0000,5.1299,0.2301
19.6500,0.3205,-0.0119,0.0000,5.0994,0.2180
19.6600,0.3205,-0.0119,0.0000,5.1164,0.1976
19.6700,0.3205,-0.0119,0.0000,5.0864,0.1626
19.6800,0.3205,-0.0119,0.0000,5.1040,0.1270
19.6900,0.3205,-0.0119,0.0000,5.0744,0.0992
19.7000,0.3205,-0.0119,0.0000,5.0925,0.0737
19.7100,0.3205,-0.0119,0.0000,5.0633,0.0492
19.7200,0.3205,-0.0119,0.0000,5.0818,0.0266
19.7300,0.3205,-0.0119,0.0000,5.0531,0.0056
19.7400,0.3205,-0.0119,0.0000,5.0720,-0.0139
19.7500,0.3205,-0.0119,0.0000,5.0436,-0.0321
19.7600,0.3205,-0.0119,0.0000,5.0628,-0.0489
19.7700,0.3205,-0.0119,0.0000,5.0349,-0.0644
19.7800,0.3205,-0.0119,0.0000,5.0544,-0.0788
19.7900,0.3205,-0.0119,0.0000,5.0268,-0.0920
19.8000,0.3205,-0.0119,0.0000,5.0466,-0.1043
19.8100,0.3205,-0.0119,0.0000,5.0191,-0.1155
19.8200,0.3205,-0.0119,0.0000,5.0392,-0.1259
19.8300,0.3205,-0.0119,0.0000,5.0121,-0.1353
19.8400,0.3205,-0.0119,0.0000,5.0324,-0.1440
19.8500,0.3205,-0.0119,0.0000,5.0056,-0.1519
19.8600,0.3205,-0.0119,0.0000,5.0261,-0.1591
19.8700,0.3205,-0.0119,0.0000,4.9994,-0.1656
19.8800,0.3205,-0.0119,0.0000,5.0741,-0.1535
19.8900,0.3205,-0.0119,0.0000,5.1152,-0.1189
19.9000,0.3205,-0.0119,0.0000,5.1582,-0.0778
19.9100,0.3205,-0.0119,0.0000,5.1743,-0.0234
19.9200,0.3205,-0.0119,0.0000,5.1972,0.0300
19.9300,0.3205,-0.0119,0.0000,5.1479,0.0743
19.9400,0.3205,-0.0119,0.0000,5.1618,0.1150
19.9500,0.3205,-0.0119,0.0000,5.1323,0.1534
19.9600,0.3205,-0.0119,0.0000,5.1474,0.1887
19.9700,0.3205,-0.0119,0.0000,5.1163,0.2214
19.9800,0.3205,-0.0119,0.0000,5.1328,0.2336
19.9900,0.3205,-0.0119,0.0000,5.1022,0.2215
20.0000,0.3205,-0.0119,0.0000,5.1193,0.2011
20.0100,0.3205,-0.0119,0.0000,5.0892,0.1660
20.0200,0.3205,-0.0119,0.0000,5.1068,0.1303
20.0300,0.3205,-0.0119,0.0000,5.0772,0.1024
20.0400,0.3205,-0.0119,0.0000,5.0953,0.0768
20.0500,0.3205,-0.0119,0.0000,5.0661,0.0522
20.0600,0.3205,-0.0119,0.0000,5.0846,0.0295
20.0700,0.3205,-0.0119,0.0000,5.0559,0.0084
20.0800,0.3205,-0.0119,0.0000,5.0748,-0.0112
20.0900,0.3205,-0.0119,0.0000,5.0464,-0.0295
20.1000,0.3205,-0.0119,0.0000,5.0657,-0.0463
20.1100,0.3205,-0.0119,0.0000,5.0376,-0.0620
20.1200,0.3205,-0.0119,0.0000,5.0572,-0.0764
20.1300,0.3205,-0.0119,0.0000,5.0295,-0.0898
20.1400,0.3205,-0.0119,0.0000,5.0493,-0.1021
20.1500,0.3205,-0.0119,0.0000,5.0220,-0.1134
20.1600,0.3205,-0.0119,0.0000,5.0420,-0.1238
20.1700,0.3205,-0.0119,0.0000,5.0149,-0.1333
20.1800,0.3205,-0.0119,0.0000,5.0352,-0.1421
20.1900,0.3205,-0.0119,0.0000,5.0084,-0.1500
20.2000,0.3205,-0.0119,0.0000,5.0289,-0.1573
20.2100,0.3205,-0.0119,0.0000,5.0022,-0.1639
20.2200,0.3205,-0.0119,0.0000,5.0229,-0.1698
20.2300,0.3205,-0.0119,0.0000,4.9965,-0.1752
20.2400,0.3205,-0.0119,0.0000,5.0715,-0.1620
20.2500,0.3205,-0.0119,0.0000,5.1132,-0.1262
20.2600,0.3205,-0.0119,0.0000,5.1561,-0.0839
20.2700,0.3205,-0.0119,0.0000,5.1734,-0.0283
20.2800,0.3205,-0.0119,0.0000,5.1969,0.0266
20.2900,0.3205,-0.0119,0.0000,5.1478,0.0722
20.3000,0.3205,-0.0119,0.0000,5.1614,0.1139
20.3100,0.3205,-0.0119,0.0000,5.1325,0.1535
20.3200,0.3205,-0.0119,0.0000,5.1475,0.1900
20.3300,0.3205,-0.0119,0.0000,5.1164,0.2236
20.3400,0.3205,-0.0119,0.0000,5.1329,0.2366
20.3500,0.3205,-0.0119,0.0000,5.1024,0.2251
20.3600,0.3205,-0.0119,0.0000,5.1195,0.2054
20.3700,0.3205,-0.0119,0.0000,5.0894,0.1706
20.3800,0.3205,-0.0119,0.0000,5.1071,0.1349
20.3900,0.3205,-0.0119,0.0000,5.0775,0.1070
20.4000,0.3205,-0.0119,0.0000,5.0956,0.0815
20.4100,0.3205,-0.0119,0.0000,5.0664,0.0567
20.4200,0.3205,-0.0119,0.0000,5.0850,0.0340
20.4300,0.3205,-0.0119,0.0000,5.0563,0.0128
20.4400,0.3205,-0.0119,0.0000,5.0752,-0.0068
20.4500,0.3205,-0.0119,0.0000,5.0468,-0.0251
20.4600,0.3205,-0.0119,0.0000,5.0661,-0.0421
20.4700,0.3205,-0.0119,0.0000,5.0380,-0.0578
20.4800,0.3205,-0.0119,0.0000,5.0576,-0.0724
20.4900,0.3205,-0.0119,0.0000,5.0299,-0.0858
20.5000,0.3205,-0.0119,0.0000,5.0498,-0.0982
20.5100,0.3205,-0.0119,0.0000,5.0224,-0.1096
20.5200,0.3205,-0.0119,0.0000,5.0424,-0.1202
20.5300,0.3205,-0.0119,0.0000,5.0153,-0.1298
20.5400,0.3205,-0.0119,0.0000,5.0356,-0.1387
20.5500,0.3205,-0.0119,0.0000,5.0088,-0.1467
20.5600,0.3205,-0.0119,0.0000,5.0293,-0.1541
20.5700,0.3205,-0.0119,0.0000,5.0026,-0.1608
20.5800,0.3205,-0.0119,0.0000,5.0233,-0.1669
20.5900,0.3205,-0.0119,0.0000,4.9968,-0.1723
20.6000,0.3205,-0.0119,0.0000,5.0719,-0.1592
20.6100,0.3205,-0.0119,0.0000,5.1136,-0.1235
20.6200,0.3205,-0.0119,0.0000,5.1565,-0.0814
20.6300,0.3205,-0.0119,0.0000,5.1738,-0.0258
20.6400,0.3205,-0.0119,0.0000,5.1972,0.0289
20.6500,0.3205,-0.0119,0.0000,5.1481,0.0744
20.6600,0.3205,-0.0119,0.0000,5.1617,0.1160
20.6700,0.3205,-0.0119,0.0000,5.1327,0.1556
20.6800,0.3205,-0.0119,0.0000,5.1478,0.1919
20.6900,0.3205,-0.0119,0.0000,5.1167,0.2254
20.7000,0.3205,-0.0119,0.0000,5.1332,0.2383
20.7100,0.3205,-0.0119,0.0000,5.1027,0.2268
20.7200,0.3205,-0.0119,0.0000,5.1198,0.2070
20.7300,0.3205,-0.0119,0.0000,5.0897,0.1720
20.7400,0.3205,-0.0119,0.0000,5.1073,0.1363
20.7500,0.3205,-0.0119,0.0000,5.0778,0.1083
20.7600,0.3205,-0.0119,0.0000,5.0959,0.0828
20.7700,0.3205,-0.0119,0.0000,5.0667,0.0580
20.7800,0.3205,-0.0119,0.0000,5.0853,0.0353
20.7900,0.3205,-0.0119,0.0000,5.0565,0.0140
20.8000,0.3205,-0.0119,0.0000,5.0755,-0.0057
20.8100,0.3205,-0.0119,0.0000,5.0471,-0.0240
20.8200,0.3205,-0.0119,0.0000,5.0664,-0.0410
20.8300,0.3205,-0.0119,0.0000,5.0384,-0.0567
20.8400,0.3205,-0.0119,0.0000,5.0579,-0.0713
20.8500,0.3205,-0.0119,0.0000,5.0303,-0.0847
20.8600,0.3205,-0.0119,0.0000,5.0501,-0.0972
20.8700,0.3205,-0.0119,0.0000,5.0228,-0.1086
20.8800,0.3205,-0.0119,0.0000,5.0428,-0.1191
20.8900,0.3205,-0.0119,0.0000,5.0158,-0.1287
20.9000,0.3205,-0.0119,0.0000,5.0360,-0.1376
20.9100,0.3205,-0.0119,0.0000,5.0092,-0.1456
20.9200,0.3205,-0.0119,0.0000,5.0297,-0.1530
20.9300,0.3205,-0.0119,0.0000,5.0030,-0.1597
20.9400,0.3205,-0.0119,0.0000,5.0237,-0.1658
20.9500,0.3205,-0.0119,0.0000,4.9973,-0.1713
20.9600,0.3205,-0.0119,0.0000,5.0723,-0.1582
20.9700,0.3205,-0.0119,0.0000,5.1140,-0.1225
20.9800,0.3205,-0.0119,0.0000,5.1569,-0.0804
20.9900,0.3205,-0.0119,0.0000,5.1743,-0.0248
21.0000,0.3205,-0.0119,0.0000,5.1978,0.0299
21.0100,0.3205,-0.0119,0.0000,5.1487,0.0754
21.0200,0.3205,-0.0119,0.0000,5.1623,0.1171
21.0300,0.3205,-0.0119,0.0000,5.1334,0.1567
21.0400,0.3205,-0.0119,0.0000,5.1483,0.1930
21.0500,0.3205,-0.0119,0.0000,5.1173,0.2266
21.0600,0.3205,-0.0119,0.0000,5.1337,0.2395
21.0700,0.3205,-0.0119,0.0000,5.1032,0.2279
21.0800,0.3205,-0.0119,0.0000,5.1202,0.2080
21.0900,0.3205,-0.0119,0.0000,5.0902,0.1731
21.1000,0.3205,-0.0119,0.0000,5.1078,0.1373
21.1100,0.3205,-0.0119,0.0000,5.0782,0.1092
21.1200,0.3205,-0.0119,0.0000,5.0963,0.0836
21.1300,0.3205,-0.0119,0.0000,5.0672,0.0587
21.1400,0.3205,-0.0119,0.0000,5.0857,0.0359
21.1500,0.3205,-0.0119,0.0000,5.0570,0.0146
21.1600,0.3205,-0.0119,0.0000,5.0759,-0.0051
21.1700,0.3205,-0.0119,0.0000,5.0476,-0.0235
21.1800,0.3205,-0.0119,0.0000,5.0668,-0.0405
21.1900,0.3205,-0.0119,0.0000,5.0388,-0.0563
21.2000,0.3205,-0.0119,0.0000,5.0584,-0.0709
21.2100,0.3205,-0.0119,0.0000,5.0307,-0.0844
21.2200,0.3205,-0.0119,0.0000,5.0506,-0.0968
21.2300,0.3205,-0.0119,0.0000,5.0232,-0.1083
21.2400,0.3205,-0.0119,0.0000,5.0432,-0.1188
21.2500,0.3205,-0.0119,0.0000,5.0161,-0.1285
21.2600,0.3205,-0.0119,0.0000,5.0364,-0.1374
21.2700,0.3205,-0.0119,0.0000,5.0096,-0.1454
21.2800,0.3205,-0.0119,0.0000,5.0301,-0.1528
21.2900,0.3205,-0.0119,0.0000,5.0033,-0.1596
21.3000,0.3205,-0.0119,0.0000,5.0240,-0.1657
21.3100,0.3205,-0.0119,0.0000,4.9974,-0.1713
21.3200,0.3205,-0.0119,0.0000,5.0725,-0.1583
21.3300,0.3205,-0.0119,0.0000,5.1142,-0.1226
21.3400,0.3205,-0.0119,0.0000,5.1571,-0.0806
21.3500,0.3205,-0.0119,0.0000,5.1744,-0.0251
21.3600,0.3205,-0.0119,0.0000,5.1978,0.0295
21.3700,0.3205,-0.0119,0.0000,5.1487,0.0749
21.3800,0.3205,-0.0119,0.0000,5.1623,0.1165
21.3900,0.3205,-0.0119,0.0000,5.1333,0.1559
21.4000,0.3205,-0.0119,0.0000,5.1483,0.1922
21.4100,0.3205,-0.0119,0.0000,5.1173,0.2257
21.4200,0.3205,-0.0119,0.0000,5.1337,0.2386
21.4300,0.3205,-0.0119,0.0000,5.1032,0.2270
21.4400,0.3205,-0.0119,0.0000,5.1203,0.2071
21.4500,0.3205,-0.0119,0.0000,5.0902,0.1722
21.4600,0.3205,-0.0119,0.0000,5.1079,0.1364
21.4700,0.3205,-0.0119,0.0000,5.0783,0.1084
21.4800,0.3205,-0.0119,0.0000,5.0964,0.0828
21.4900,0.3205,-0.0119,0.0000,5.0672,0.0580
21.5000,0.3205,-0.0119,0.0000,5.0857,0.0352
21.5100,0.3205,-0.0119,0.0000,5.0570,0.0139
21.5200,0.3205,-0.0119,0.0000,5.0759,-0.0058
21.5300,0.3205,-0.0119,0.0000,5.0475,-0.0242
21.5400,0.3205,-0.0119,0.0000,5.0668,-0.0412
21.5500,0.3205,-0.0119,0.0000,5.0388,-0.0570
21.5600,0.3205,-0.0119,0.0000,5.0583,-0.0716
21.5700,0.3205,-0.0119,0.0000,5.0306,-0.0851
21.5800,0.3205,-0.0119,0.0000,5.0504,-0.0976
21.5900,0.3205,-0.0119,0.0000,5.0231,-0.1090
21.6000,0.3205,-0.0119,0.0000,5.0431,-0.1196
21.6100,0.3205,-0.0119,0.0000,5.0160,-0.1293
21.6200,0.3205,-0.0119,0.0000,5.0363,-0.1382
21.6300,0.3205,-0.0119,0.0000,5.0094,-0.1463
21.6400,0.3205,-0.0119,0.0000,5.0299,-0.1537
21.6500,0.3205,-0.0119,0.0000,5.0032,-0.1604
21.6600,0.3205,-0.0119,0.0000,5.0239,-0.1665
21.6700,0.3205,-0.0119,0.0000,4.9974,-0.1721
21.6800,0.3205,-0.0119,0.0000,5.0724,-0.1590
21.6900,0.3205,-0.0119,0.0000,5.1141,-0.1233
21.7000,0.3205,-0.0119,0.0000,5.1570,-0.0813
21.7100,0.3205,-0.0119,0.0000,5.1744,-0.0258
21.7200,0.3205,-0.0119,0.0000,5.1979,0.0290
21.7300,0.3205,-0.0119,0.0000,5.1488,0.0744
21.7400,0.3205,-0.0119,0.0000,5.1623,0.1161
21.7500,0.3205,-0.0119,0.0000,5.1334,0.1556
21.7600,0.3205,-0.0119,0.0000,5.1484,0.1919
21.7700,0.3205,-0.0119,0.0000,5.1173,0.2255
21.7800,0.3205,-0.0119,0.0000,5.1337,0.2384
21.7900,0.3205,-0.0119,0.0000,5.1032,0.2268
21.8000,0.3205,-0.0119,0.0000,5.1202,0.2070
21.8100,0.3205,-0.0119,0.0000,5.0902,0.1720
21.8200,0.3205,-0.0119,0.0000,5.1078,0.1363
21.8300,0.3205,-0.0119,0.0000,5.0782,0.1082
21.8400,0.3205,-0.0119,0.0000,5.0963,0.0826
21.8500,0.3205,-0.0119,0.0000,5.0671,0.0578
21.8600,0.3205,-0.0119,0.0000,5.0857,0.0350
21.8700,0.3205,-0.0119,0.0000,5.0569,0.0137
21.8800,0.3205,-0.0119,0.0000,5.0757,-0.0061
21.8900,0.3205,-0.0119,0.0000,5.0474,-0.0245
21.9000,0.3205,-0.0119,0.0000,5.0666,-0.0416
21.9100,0.3205,-0.0119,0.0000,5.0386,-0.0574
21.9200,0.3205,-0.0119,0.0000,5.0581,-0.0720
21.9300,0.3205,-0.0119,0.0000,5.0304,-0.0856
21.9400,0.3205,-0.0119,0.0000,5.0502,-0.0981
21.9500,0.3205,-0.0119,0.0000,5.0228,-0.1096
21.9600,0.3205,-0.0119,0.0000,5.0429,-0.1202
21.9700,0.3205,-0.0119,0.0000,5.0158,-0.1299
21.9800,0.3205,-0.0119,0.0000,5.0361,-0.1388
21.9900,0.3205,-0.0119,0.0000,5.0092,-0.1469
22.0000,0.3205,-0.0119,0.0000,5.0296,-0.1543
22.0100,0.3205,-0.0119,0.0000,5.0031,-0.1610
22.0200,0.3205,-0.0119,0.0000,5.0237,-0.1671
22.0300,0.3205,-0.0119,0.0000,4.9972,-0.1726
22.0400,0.3205,-0.0119,0.0000,5.0723,-0.1595
22.0500,0.3205,-0.0119,0.0000,5.1139,-0.1238
22.0600,0.3205,-0.0119,0.0000,5.1568,-0.0817
22.0700,0.3205,-0.0119,0.0000,5.1742,-0.0262
22.0800,0.3205,-0.0119,0.0000,5.1977,0.0286
22.0900,0.3205,-0.0119,0.0000,5.1486,0.0741
22.1000,0.3205,-0.0119,0.0000,5.1621,0.1158
22.1100,0.3205,-0.0119,0.0000,5.1332,0.1553
22.1200,0.3205,-0.0119,0.0000,5.1482,0.1916
22.1300,0.3205,-0.0119,0.0000,5.1172,0.2252
22.1400,0.3205,-0.0119,0.0000,5.1336,0.2382
22.1500,0.3205,-0.0119,0.0000,5.1030,0.2266
22.1600,0.3205,-0.0119,0.0000,5.1201,0.2068
22.1700,0.3205,-0.0119,0.0000,5.0900,0.1718
22.1800,0.3205,-0.0119,0.0000,5.1076,0.1361
22.1900,0.3205,-0.0119,0.0000,5.0780,0.1080
22.2000,0.3205,-0.0119,0.0000,5.0961,0.0824
22.2100,0.3205,-0.0119,0.0000,5.0670,0.0576
22.2200,0.3205,-0.0119,0.0000,5.0854,0.0347
22.2300,0.3205,-0.0119,0.0000,5.0567,0.0134
22.2400,0.3205,-0.0119,0.0000,5.0756,-0.0063
22.2500,0.3205,-0.0119,0.0000,5.0472,-0.0247
22.2600,0.3205,-0.0119,0.0000,5.0665,-0.0418
22.2700,0.3205,-0.0119,0.0000,5.0384,-0.0576
22.2800,0.3205,-0.0119,0.0000,5.0580,-0.0722
22.2900,0.3205,-0.0119,0.0000,5.0303,-0.0857
22.3000,0.3205,-0.0119,0.0000,5.0501,-0.0982
22.3100,0.3205,-0.0119,0.0000,5.0227,-0.1097
22.3200,0.3205,-0.0119,0.0000,5.0427,-0.1203
22.3300,0.3205,-0.0119,0.0000,5.0156,-0.1300
22.3400,0.3205,-0.0119,0.0000,5.0359,-0.1389
22.3500,0.3205,-0.0119,0.0000,5.0090,-0.1470
22.3600,0.3205,-0.0119,0.0000,5.0294,-0.1545
22.3700,0.3205,-0.0119,0.0000,5.0028,-0.1612
22.3800,0.3205,-0.0119,0.0000,5.0234,-0.1674
22.3900,0.3205,-0.0119,0.0000,4.9970,-0.1729
22.4000,0.3205,-0.0119,0.0000,5.0720,-0.1598
22.4100,0.3205,-0.0119,0.0000,5.1137,-0.1241
22.4200,0.3205,-0.0119,0.0000,5.1566,-0.0820
22.4300,0.3205,-0.0119,0.0000,5.1740,-0.0265
22.4400,0.3205,-0.0119,0.0000,5.1975,0.0283
22.4500,0.3205,-0.0119,0.0000,5.1484,0.0738
22.4600,0.3205,-0.0119,0.0000,5.1618,0.1155
22.4700,0.3205,-0.0119,0.0000,5.1329,0.1550
22.4800,0.3205,-0.0119,0.0000,5.1479,0.1913
22.4900,0.3205,-0.0119,0.0000,5.1169,0.2249
22.5000,0.3205,-0.0119,0.0000,5.1333,0.2378
22.5100,0.3205,-0.0119,0.0000,5.1028,0.2263
22.5200,0.3205,-0.0119,0.0000,5.1198,0.2065
22.5300,0.3205,-0.0119,0.0000,5.0897,0.1715
22.5400,0.3205,-0.0119,0.0000,5.1073,0.1357
22.5500,0.3205,-0.0119,0.0000,5.0777,0.1077
22.5600,0.3205,-0.0119,0.0000,5.0958,0.0821
22.5700,0.3205,-0.0119,0.0000,5.0666,0.0572
22.5800,0.3205,-0.0119,0.0000,5.0852,0.0344
22.5900,0.3205,-0.0119,0.0000,5.0564,0.0131
22.6000,0.3205,-0.0119,0.0000,5.0753,-0.0066
22.6100,0.3205,-0.0119,0.0000,5.0470,-0.0250
22.6200,0.3205,-0.0119,0.0000,5.0662,-0.0421
22.6300,0.3205,-0.0119,0.0000,5.0382,-0.0579
22.6400,0.3205,-0.0119,0.0000,5.0577,-0.0725
22.6500,0.3205,-0.0119,0.0000,5.0300,-0.0860
22.6600,0.3205,-0.0119,0.0000,5.0498,-0.0984
22.6700,0.3205,-0.0119,0.0000,5.0225,-0.1099
22.6800,0.3205,-0.0119,0.0000,5.0425,-0.1205
22.6900,0.3205,-0.0119,0.0000,5.0153,-0.1301
22.7000,0.3205,-0.0119,0.0000,5.0356,-0.1390
22.7100,0.3205,-0.0119,0.0000,5.0087,-0.1472
22.7200,0.3205,-0.0119,0.0000,5.0292,-0.1546
22.7300,0.3205,-0.0119,0.0000,5.0025,-0.1613
22.7400,0.3205,-0.0119,0.0000,5.0232,-0.1674
22.7500,0.3205,-0.0119,0.0000,4.9967,-0.1729
22.7600,0.3205,-0.0119,0.0000,5.0718,-0.1598
22.7700,0.3205,-0.0119,0.0000,5.1134,-0.1242
22.7800,0.3205,-0.0119,0.0000,5.1563,-0.0821
22.7900,0.3205,-0.0119,0.0000,5.1737,-0.0266
22.8000,0.3205,-0.0119,0.0000,5.1973,0.0282
22.8100,0.3205,-0.0119,0.0000,5.1482,0.0737
22.8200,0.3205,-0.0119,0.0000,5.1617,0.1154
22.8300,0.3205,-0.0119,0.0000,5.1328,0.1550
22.8400,0.3205,-0.0119,0.0000,5.1478,0.1914
22.8500,0.3205,-0.0119,0.0000,5.1167,0.2250
22.8600,0.3205,-0.0119,0.0000,5.1331,0.2379
22.8700,0.3205,-0.0119,0.0000,5.1026,0.2264
22.8800,0.3205,-0.0119,0.0000,5.1196,0.2066
22.8900,0.3205,-0.0119,0.0000,5.0896,0.1717
22.9000,0.3205,-0.0119,0.0000,5.1072,0.1359
22.9100,0.3205,-0.0119,0.0000,5.0776,0.1078
22.9200,0.3205,-0.0119,0.0000,5.0957,0.0823
22.9300,0.3205,-0.0119,0.0000,5.0665,0.0574
22.9400,0.3205,-0.0119,0.0000,5.0850,0.0346
22.9500,0.3205,-0.0119,0.0000,5.0563,0.0133
22.9600,0.3205,-0.0119,0.0000,5.0752,-0.0065
22.9700,0.3205,-0.0119,0.0000,5.0468,-0.0248
22.9800,0.3205,-0.0119,0.0000,5.0660,-0.0419
22.9900,0.3205,-0.0119,0.0000,5.0380,-0.0576
23.0000,0.3205,-0.0119,0.0000,5.0576,-0.0723
23.0100,0.3205,-0.0119,0.0000,5.0299,-0.0857
23.0200,0.3205,-0.0119,0.0000,5.0497,-0.0982
23.0300,0.3205,-0.0119,0.0000,5.0223,-0.1097
23.0400,0.3205,-0.0119,0.0000,5.0423,-0.1203
23.0500,0.3205,-0.0119,0.0000,5.0152,-0.1300
23.0600,0.3205,-0.0119,0.0000,5.0355,-0.1389
23.0700,0.3205,-0.0119,0.0000,5.0086,-0.1470
23.0800,0.3205,-0.0119,0.0000,5.0290,-0.1544
23.0900,0.3205,-0.0119,0.0000,5.0024,-0.1612
23.1000,0.3205,-0.0119,0.0000,5.0231,-0.1673
23.1100,0.3205,-0.0119,0.0000,4.9966,-0.1728
23.1200,0.3205,-0.0119,0.0000,5.0716,-0.1597
23.1300,0.3205,-0.0119,0.0000,5.1133,-0.1241
23.1400,0.3205,-0.0119,0.0000,5.1562,-0.0820
23.1500,0.3205,-0.0119,0.0000,5.1736,-0.0265
23.1600,0.3205,-0.0119,0.0000,5.1972,0.0283
23.1700,0.3205,-0.0119,0.0000,5.1481,0.0739
23.1800,0.3205,-0.0119,0.0000,5.1615,0.1156
23.1900,0.3205,-0.0119,0.0000,5.1327,0.1552
23.2000,0.3205,-0.0119,0.0000,5.1477,0.1916
23.2100,0.3205,-0.0119,0.0000,5.1166,0.2252
23.2200,0.3205,-0.0119,0.0000,5.1330,0.2382
23.2300,0.3205,-0.0119,0.0000,5.1025,0.2266
23.2400,0.3205,-0.0119,0.0000,5.1195,0.2069
23.2500,0.3205,-0.0119,0.0000,5.0894,0.1719
23.2600,0.3205,-0.0119,0.0000,5.1070,0.1361
23.2700,0.3205,-0.0119,0.0000,5.0774,0.1080
23.2800,0.3205,-0.0119,0.0000,5.0955,0.0824
23.2900,0.3205,-0.0119,0.0000,5.0663,0.0575
23.3000,0.3205,-0.0119,0.0000,5.0848,0.0346
23.3100,0.3205,-0.0119,0.0000,5.0561,0.0133
23.3200,0.3205,-0.0119,0.0000,5.0750,-0.0065
23.3300,0.3205,-0.0119,0.0000,5.0466,-0.0249
23.3400,0.3205,-0.0119,0.0000,5.0658,-0.0420
23.3500,0.3205,-0.0119,0.0000,5.0378,-0.0578
23.3600,0.3205,-0.0119,0.0000,5.0574,-0.0724
23.3700,0.3205,-0.0119,0.0000,5.0297,-0.0859
23.3800,0.3205,-0.0119,0.0000,5.0495,-0.0984
23.3900,0.3205,-0.0119,0.0000,5.0220,-0.1098
23.4000,0.3205,-0.0119,0.0000,5.0421,-0.1204
23.4100,0.3205,-0.0119,0.0000,5.0150,-0.1301
23.4200,0.3205,-0.0119,0.0000,5.0353,-0.1390
23.4300,0.3205,-0.0119,0.0000,5.0084,-0.1471
23.4400,0.3205,-0.0119,0.0000,5.0288,-0.1546
23.4500,0.3205,-0.0119,0.0000,5.0022,-0.1613
23.4600,0.3205,-0.0119,0.0000,5.0228,-0.1674
23.4700,0.3205,-0.0119,0.0000,4.9964,-0.1730
23.4800,0.3205,-0.0119,0.0000,5.0714,-0.1599
23.4900,0.3205,-0.0119,0.0000,5.1131,-0.1242
23.5000,0.3205,-0.0119,0.0000,5.1560,-0.0821
23.5100,0.3205,-0.0119,0.0000,5.1734,-0.0265
23.5200,0.3205,-0.0119,0.0000,5.1968,0.0282
23.5300,0.3205,-0.0119,0.0000,5.1477,0.0737
23.5400,0.3205,-0.0119,0.0000,5.1612,0.1154
23.5500,0.3205,-0.0119,0.0000,5.1323,0.1549
23.5600,0.3205,-0.0119,0.0000,5.1473,0.1912
23.5700,0.3205,-0.0119,0.0000,5.1162,0.2248
23.5800,0.3205,-0.0119,0.0000,5.1326,0.2377
23.5900,0.3205,-0.0119,0.0000,5.1021,0.2261
23.6000,0.3205,-0.0119,0.0000,5.1191,0.2063
23.6100,0.3205,-0.0119,0.0000,5.0891,0.1713
23.6200,0.3205,-0.0119,0.0000,5.1067,0.1355
23.6300,0.3205,-0.0119,0.0000,5.0771,0.1075
23.6400,0.3205,-0.0119,0.0000,5.0952,0.0819
23.6500,0.3205,-0.0119,0.0000,5.0660,0.0571
23.6600,0.3205,-0.0119,0.0000,5.0845,0.0343
23.6700,0.3205,-0.0119,0.0000,5.0558,0.0130
23.6800,0.3205,-0.0119,0.0000,5.0747,-0.0068
23.6900,0.3205,-0.0119,0.0000,5.0463,-0.0251
23.7000,0.3205,-0.0119,0.0000,5.0655,-0.0422
23.7100,0.3205,-0.0119,0.0000,5.0375,-0.0579
23.7200,0.3205,-0.0119,0.0000,5.0571,-0.0725
23.7300,0.3205,-0.0119,0.0000,5.0294,-0.0860
23.7400,0.3205,-0.0119,0.0000,5.0492,-0.0985
23.7500,0.3205,-0.0119,0.0000,5.0218,-0.1100
23.7600,0.3205,-0.0119,0.0000,5.0418,-0.1205
23.7700,0.3205,-0.0119,0.0000,5.0147,-0.1302
23.7800,0.3205,-0.0119,0.0000,5.0350,-0.1391
23.7900,0.3205,-0.0119,0.0000,5.0081,-0.1472
23.8000,0.3205,-0.0119,0.0000,5.0286,-0.1546
23.8100,0.3205,-0.0119,0.0000,5.0019,-0.1613
23.8200,0.3205,-0.0119,0.0000,5.0226,-0.1674
23.8300,0.3205,-0.0119,0.0000,4.9961,-0.1730
23.8400,0.3205,-0.0119,0.0000,5.0711,-0.1599
23.8500,0.3205,-0.0119,0.0000,5.1129,-0.1242
23.8600,0.3205,-0.0119,0.0000,5.1557,-0.0821
23.8700,0.3205,-0.0119,0.0000,5.1731,-0.0266
23.8800,0.3205,-0.0119,0.0000,5.1966,0.0282
23.8900,0.3205,-0.0119,0.0000,5.1474,0.0737
23.9000,0.3205,-0.0119,0.0000,5.1609,0.1153
23.9100,0.3205,-0.0119,0.0000,5.1320,0.1549
23.9200,0.3205,-0.0119,0.0000,5.1470,0.1912
23.9300,0.3205,-0.0119,0.0000,5.1159,0.2248
23.9400,0.3205,-0.0119,0.0000,5.1323,0.2377
23.9500,0.3205,-0.0119,0.0000,5.1018,0.2261
23.9600,0.3205,-0.0119,0.0000,5.1189,0.2062
23.9700,0.3205,-0.0119,0.0000,5.0888,0.1713
23.9800,0.3205,-0.0119,0.0000,5.1064,0.1355
23.9900,0.3205,-0.0119,0.0000,5.0768,0.1075
24.0000,0.3205,-0.0119,0.0000,5.0949,0.0819
24.0100,0.3205,-0.0119,0.0000,5.0658,0.0571
24.0200,0.3205,-0.0119,0.0000,5.0843,0.0343
24.0300,0.3205,-0.0119,0.0000,5.0555,0.0130
24.0400,0.3205,-0.0119,0.0000,5.0744,-0.0068
24.0500,0.3205,-0.0119,0.0000,5.0461,-0.0251
24.0600,0.3205,-0.0119,0.0000,5.0653,-0.0421
24.0700,0.3205,-0.0119,0.0000,5.0373,-0.0579
24.0800,0.3205,-0.0119,0.0000,5.0568,-0.0725
24.0900,0.3205,-0.0119,0.0000,5.0292,-0.0860
24.1000,0.3205,-0.0119,0.0000,5.0490,-0.0984
24.1100,0.3205,-0.0119,0.0000,5.0216,-0.1099
24.1200,0.3205,-0.0119,0.0000,5.0416,-0.1204
24.1300,0.3205,-0.0119,0.0000,5.0145,-0.1301
24.1400,0.3205,-0.0119,0.0000,5.0348,-0.1390
24.1500,0.3205,-0.0119,0.0000,5.0079,-0.1471
24.1600,0.3205,-0.0119,0.0000,5.0284,-0.1545
24.1700,0.3205,-0.0119,0.0000,5.0017,-0.1612
24.1800,0.3205,-0.0119,0.0000,5.0224,-0.1673
24.1900,0.3205,-0.0119,0.0000,4.9959,-0.1728
24.2000,0.3205,-0.0119,0.0000,5.0710,-0.1597
24.2100,0.3205,-0.0119,0.0000,5.1127,-0.1240
24.2200,0.3205,-0.0119,0.0000,5.1556,-0.0819
24.2300,0.3205,-0.0119,0.0000,5.1730,-0.0263
24.2400,0.3205,-0.0119,0.0000,5.1965,0.0284
24.2500,0.3205,-0.0119,0.0000,5.1473,0.0740
24.2600,0.3205,-0.0119,0.0000,5.1608,0.1157
24.2700,0.3205,-0.0119,0.0000,5.1320,0.1552
24.2800,0.3205,-0.0119,0.0000,5.1469,0.1916
24.2900,0.3205,-0.0119,0.0000,5.1159,0.2252
24.3000,0.3205,-0.0119,0.0000,5.1323,0.2381
24.3100,0.3205,-0.0119,0.0000,5.1017,0.2265
24.3200,0.3205,-0.0119,0.0000,5.1188,0.2067
24.3300,0.3205,-0.0119,0.0000,5.0887,0.1717
24.3400,0.3205,-0.0119,0.0000,5.1063,0.1360
24.3500,0.3205,-0.0119,0.0000,5.0767,0.1079
24.3600,0.3205,-0.0119,0.0000,5.0948,0.0823
24.3700,0.3205,-0.0119,0.0000,5.0657,0.0575
24.3800,0.3205,-0.0119,0.0000,5.0842,0.0346
24.3900,0.3205,-0.0119,0.0000,5.0554,0.0133
24.4000,0.3205,-0.0119,0.0000,5.0743,-0.0065
24.4100,0.3205,-0.0119,0.0000,5.0460,-0.0248
24.4200,0.3205,-0.0119,0.0000,5.0652,-0.0419
24.4300,0.3205,-0.0119,0.0000,5.0372,-0.0577
24.4400,0.3205,-0.0119,0.0000,5.0567,-0.0723
24.4500,0.3205,-0.0119,0.0000,5.0290,-0.0858
24.4600,0.3205,-0.0119,0.0000,5.0488,-0.0983
24.4700,0.3205,-0.0119,0.0000,5.0215,-0.1097
24.4800,0.3205,-0.0119,0.0000,5.0415,-0.1203
24.4900,0.3205,-0.0119,0.0000,5.0144,-0.1299
24.5000,0.3205,-0.0119,0.0000,5.0346,-0.1388
24.5100,0.3205,-0.0119,0.0000,5.0078,-0.1469
24.5200,0.3205,-0.0119,0.0000,5.0283,-0.1543
24.5300,0.3205,-0.0119,0.0000,5.0016,-0.1611
24.5400,0.3205,-0.0119,0.0000,5.0222,-0.1672
24.5500,0.3205,-0.0119,0.0000,4.9958,-0.1727
24.5600,0.3205,-0.0119,0.0000,5.0708,-0.1596
24.5700,0.3205,-0.0119,0.0000,5.1125,-0.1239
24.5800,0.3205,-0.0119,0.0000,5.1554,-0.0818
24.5900,0.3205,-0.0119,0.0000,5.1728,-0.0263
24.6000,0.3205,-0.0119,0.0000,5.1964,0.0285
24.6100,0.3205,-0.0119,0.0000,5.1473,0.0741
24.6200,0.3205,-0.0119,0.0000,5.1607,0.1158
24.6300,0.3205,-0.0119,0.0000,5.1318,0.1553
24.6400,0.3205,-0.0119,0.0000,5.1468,0.1917
24.6500,0.3205,-0.0119,0.0000,5.1157,0.2253
24.6600,0.3205,-0.0119,0.0000,5.1321,0.2382
24.6700,0.3205,-0.0119,0.0000,5.1016,0.2266
24.6800,0.3205,-0.0119,0.0000,5.1187,0.2068
24.6900,0.3205,-0.0119,0.0000,5.0886,0.1718
24.7000,0.3205,-0.0119,0.0000,5.1062,0.1361
24.7100,0.3205,-0.0119,0.0000,5.0766,0.1080
24.7200,0.3205,-0.0119,0.0000,5.0947,0.0824
24.7300,0.3205,-0.0119,0.0000,5.0655,0.0575
24.7400,0.3205,-0.0119,0.0000,5.0840,0.0347
24.7500,0.3205,-0.0119,0.0000,5.0553,0.0134
24.7600,0.3205,-0.0119,0.0000,5.0742,-0.0064
24.7700,0.3205,-0.0119,0.0000,5.0458,-0.0248
24.7800,0.3205,-0.0119,0.0000,5.0651,-0.0418
24.7900,0.3205,-0.0119,0.0000,5.0371,-0.0576
24.8000,0.3205,-0.0119,0.0000,5.0566,-0.0723
24.8100,0.3205,-0.0119,0.0000,5.0289,-0.0858
24.8200,0.3205,-0.0119,0.0000,5.0487,-0.0982
24.8300,0.3205,-0.0119,0.0000,5.0213,-0.1097
24.8400,0.3205,-0.0119,0.0000,5.0413,-0.1203
24.8500,0.3205,-0.0119,0.0000,5.0142,-0.1300
24.8600,0.3205,-0.0119,0.0000,5.0345,-0.1389
24.8700,0.3205,-0.0119,0.0000,5.0076,-0.1470
24.8800,0.3205,-0.0119,0.0000,5.0281,-0.1544
24.8900,0.3205,-0.0119,0.0000,5.0014,-0.1612
24.9000,0.3205,-0.0119,0.0000,5.0220,-0.1673
24.9100,0.3205,-0.0119,0.0000,4.9956,-0.1728
24.9200,0.3205,-0.0119,0.0000,5.0706,-0.1598
24.9300,0.3205,-0.0119,0.0000,5.1123,-0.1241
24.9400,0.3205,-0.0119,0.0000,5.1552,-0.0820
24.9500,0.3205,-0.0119,0.0000,5.1725,-0.0265
24.9600,0.3205,-0.0119,0.0000,5.1959,0.0282
24.9700,0.3205,-0.0119,0.0000,5.1467,0.0737
24.9800,0.3205,-0.0119,0.0000,5.1603,0.1153
24.9900,0.3205,-0.0119,0.0000,5.1313,0.1548
25.0000,0.3205,-0.0119,0.0000,5.1463,0.1910
25.0100,0.3205,-0.0119,0.0000,5.1152,0.2245
25.0200,0.3205,-0.0119,0.0000,5.1317,0.2374
25.0300,0.3205,-0.0119,0.0000,5.1012,0.2257
25.0400,0.3205,-0.0119,0.0000,5.1182,0.2059
25.0500,0.3518,0.0193,0.0000,5.0881,0.1709
25.0600,0.3518,0.0193,0.0000,5.1057,0.1351
25.0700,0.3518,0.0193,0.0000,5.0763,0.1071
25.0800,0.3518,0.0193,0.0000,5.0946,0.0817
25.0900,0.3518,0.0193,0.0000,5.0658,0.0571
25.1000,0.3518,0.0193,0.0000,5.0848,0.0347
25.1100,0.3518,0.0193,0.0000,5.0567,0.0141
25.1200,0.3518,0.0193,0.0000,5.0763,-0.0049
25.1300,0.3518,0.0193,0.0000,5.0489,-0.0221
25.1400,0.3518,0.0193,0.0000,5.0690,-0.0378
25.1500,0.3518,0.0193,0.0000,5.0421,-0.0519
25.1600,0.3518,0.0193,0.0000,5.0627,-0.0645
25.1700,0.3518,0.0193,0.0000,5.0363,-0.0757
25.1800,0.3518,0.0193,0.0000,5.0573,-0.0856
25.1900,0.3518,0.0193,0.0000,5.0315,-0.0942
25.2000,0.3518,0.0193,0.0000,5.0529,-0.1017
25.2100,0.3518,0.0193,0.0000,5.0274,-0.1081
25.2200,0.3518,0.0193,0.0000,5.0492,-0.1135
25.2300,0.3518,0.0193,0.0000,5.0242,-0.1180
25.2400,0.3518,0.0193,0.0000,5.0462,-0.1216
25.2500,0.3518,0.0193,0.0000,5.0216,-0.1244
25.2600,0.3518,0.0193,0.0000,5.0439,-0.1265
25.2700,0.3518,0.0193,0.0000,5.0196,-0.1279
25.2800,0.3518,0.0193,0.0000,5.0422,-0.1287
25.2900,0.3518,0.0193,0.0000,5.0181,-0.1288
25.3000,0.3518,0.0193,0.0000,5.0409,-0.1285
25.3100,0.3518,0.0193,0.0000,5.0172,-0.1276
25.3200,0.3518,0.0193,0.0000,5.0402,-0.1263
25.3300,0.3518,0.0193,0.0000,5.0167,-0.1246
25.3400,0.3518,0.0193,0.0000,5.0399,-0.1226
25.3500,0.3518,0.0193,0.0000,5.0166,-0.1201
25.3600,0.3518,0.0193,0.0000,5.0400,-0.1174
25.3700,0.3518,0.0193,0.0000,5.0168,-0.1145
25.3800,0.3518,0.0193,0.0000,5.0403,-0.1113
25.3900,0.3518,0.0193,0.0000,5.0173,-0.1078
25.4000,0.3518,0.0193,0.0000,5.0410,-0.1042
25.4100,0.3518,0.0193,0.0000,5.0182,-0.1004
25.4200,0.3518,0.0193,0.0000,5.0420,-0.0964
25.4300,0.3518,0.0193,0.0000,5.0193,-0.0924
25.4400,0.3518,0.0193,0.0000,5.0432,-0.0882
25.4500,0.3518,0.0193,0.0000,5.0206,-0.0839
25.4600,0.3518,0.0193,0.0000,5.0446,-0.0795
25.4700,0.3518,0.0193,0.0000,5.0222,-0.0751
25.4800,0.3518,0.0193,0.0000,5.0463,-0.0706
25.4900,0.3518,0.0193,0.0000,5.0239,-0.0661
25.5000,0.3518,0.0193,0.0000,5.0480,-0.0615
25.5100,0.3518,0.0193,0.0000,5.0257,-0.0570
25.5200,0.3518,0.0193,0.0000,5.0500,-0.0524
25.5300,0.3518,0.0193,0.0000,5.0278,-0.0479
25.5400,0.3518,0.0193,0.0000,5.0521,-0.0433
25.5500,0.3518,0.0193,0.0000,5.0299,-0.0388
25.5600,0.3518,0.0193,0.0000,5.0542,-0.0343
25.5700,0.3518,0.0193,0.0000,5.0322,-0.0298
25.5800,0.3518,0.0193,0.0000,5.0566,-0.0254
25.5900,0.3518,0.0193,0.0000,5.0346,-0.0210
25.6000,0.3518,0.0193,0.0000,5.0590,-0.0166
25.6100,0.3518,0.0193,0.0000,5.0370,-0.0123
25.6200,0.3518,0.0193,0.0000,5.0615,-0.0081
25.6300,0.3518,0.0193,0.0000,5.0396,-0.0039
25.6400,0.3518,0.0193,0.0000,5.0641,0.0003
25.6500,0.3518,0.0193,0.0000,5.0422,0.0043
25.6600,0.3518,0.0193,0.0000,5.0667,0.0084
25.6700,0.3518,0.0193,0.0000,5.0448,0.0123
25.6800,0.3518,0.0193,0.0000,5.0694,0.0161
25.6900,0.3518,0.0193,0.0000,5.0475,0.0199
25.7000,0.3518,0.0193,0.0000,5.0721,0.0236
25.7100,0.3518,0.0193,0.0000,5.0503,0.0273
25.7200,0.3518,0.0193,0.0000,5.0749,0.0308
25.7300,0.3518,0.0193,0.0000,5.0531,0.0343
25.7400,0.3518,0.0193,0.0000,5.0777,0.0377
25.7500,0.3518,0.0193,0.0000,5.0559,0.0411
25.7600,0.3518,0.0193,0.0000,5.0805,0.0443
25.7700,0.3518,0.0193,0.0000,5.0588,0.0475
25.7800,0.3518,0.0193,0.0000,5.0834,0.0506
25.7900,0.3518,0.0193,0.0000,5.0617,0.0536
25.8000,0.3518,0.0193,0.0000,5.0863,0.0566
25.8100,0.3518,0.0193,0.0000,5.0647,0.0595
25.8200,0.3518,0.0193,0.0000,5.0893,0.0623
25.8300,0.3518,0.0193,0.0000,5.0676,0.0651
25.8400,0.3518,0.0193,0.0000,5.0922,0.0677
25.8500,0.3518,0.0193,0.0000,5.0706,0.0704
25.8600,0.3518,0.0193,0.0000,5.0952,0.0729
25.8700,0.3518,0.0193,0.0000,5.0736,0.0754
25.8800,0.3518,0.0193,0.0000,5.0982,0.0778
25.8900,0.3518,0.0193,0.0000,5.0766,0.0802
25.9000,0.3518,0.0193,0.0000,5.1012,0.0825
25.9100,0.3518,0.0193,0.0000,5.0796,0.0847
25.9200,0.3518,0.0193,0.0000,5.1042,0.0868
25.9300,0.3518,0.0193,0.0000,5.0826,0.0889
25.9400,0.3518,0.0193,0.0000,5.1072,0.0909
25.9500,0.3518,0.0193,0.0000,5.0856,0.0929
25.9600,0.3518,0.0193,0.0000,5.1102,0.0948
25.9700,0.3518,0.0193,0.0000,5.0886,0.0966
25.9800,0.3518,0.0193,0.0000,5.1132,0.0984
25.9900,0.3518,0.0193,0.0000,5.0916,0.1001
26.0000,0.3518,0.0193,0.0000,5.1162,0.1018
26.0100,0.3518,0.0193,0.0000,5.0946,0.1034
26.0200,0.3518,0.0193,0.0000,5.1192,0.1050
26.0300,0.3518,0.0193,0.0000,5.0977,0.1065
26.0400,0.3518,0.0193,0.0000,5.1222,0.1080
26.0500,0.3518,0.0193,0.0000,5.1007,0.1095
26.0600,0.3518,0.0193,0.0000,5.1253,0.1108
26.0700,0.3518,0.0193,0.0000,5.1037,0.1122
26.0800,0.3518,0.0193,0.0000,5.1283,0.1135
26.0900,0.3518,0.0193,0.0000,5.1067,0.1147
26.1000,0.3518,0.0193,0.0000,5.1313,0.1159
26.1100,0.3518,0.0193,0.0000,5.1098,0.1171
26.1200,0.3518,0.0193,0.0000,5.1343,0.1182
26.1300,0.3518,0.0193,0.0000,5.1128,0.1193
26.1400,0.3518,0.0193,0.0000,5.1373,0.1204
26.1500,0.3518,0.0193,0.0000,5.1158,0.1214
26.1600,0.3518,0.0193,0.0000,5.1403,0.1224
26.1700,0.3518,0.0193,0.0000,5.1188,0.1233
26.1800,0.3518,0.0193,0.0000,5.1433,0.1242
26.1900,0.3518,0.0193,0.0000,5.1218,0.1251
26.2000,0.3518,0.0193,0.0000,5.1463,0.1259
26.2100,0.3518,0.0193,0.0000,5.1248,0.1267
26.2200,0.3518,0.0193,0.0000,5.1493,0.1275
26.2300,0.3518,0.0193,0.0000,5.1278,0.1283
26.2400,0.3518,0.0193,0.0000,5.1523,0.1290
26.2500,0.3518,0.0193,0.0000,5.1308,0.1297
26.2600,0.3518,0.0193,0.0000,5.1553,0.1303
26.2700,0.3518,0.0193,0.0000,5.1338,0.1310
26.2800,0.3518,0.0193,0.0000,5.1582,0.1316
26.2900,0.3518,0.0193,0.0000,5.1367,0.1322
26.3000,0.3518,0.0193,0.0000,5.1612,0.1327
26.3100,0.3518,0.0193,0.0000,5.1397,0.1333
26.3200,0.3518,0.0193,0.0000,5.1641,0.1338
26.3300,0.3518,0.0193,0.0000,5.1426,0.1343
26.3400,0.3518,0.0193,0.0000,5.1671,0.1347
26.3500,0.3518,0.0193,0.0000,5.1456,0.1352
26.3600,0.3518,0.0193,0.0000,5.1700,0.1356
26.3700,0.3518,0.0193,0.0000,5.1485,0.1360
26.3800,0.3518,0.0193,0.0000,5.1730,0.1364
26.3900,0.3518,0.0193,0.0000,5.1515,0.1367
26.4000,0.3518,0.0193,0.0000,5.1759,0.1371
26.4100,0.3518,0.0193,0.0000,5.1544,0.1374
26.4200,0.3518,0.0193,0.0000,5.1788,0.1378
26.4300,0.3518,0.0193,0.0000,5.1573,0.1381
26.4400,0.3518,0.0193,0.0000,5.1817,0.1383
26.4500,0.3518,0.0193,0.0000,5.1602,0.1386
26.4600,0.3518,0.0193,0.0000,5.1846,0.1389
26.4700,0.3518,0.0193,0.0000,5.1632,0.1391
26.4800,0.3518,0.0193,0.0000,5.1875,0.1393
26.4900,0.3518,0.0193,0.0000,5.1660,0.1395
26.5000,0.3518,0.0193,0.0000,5.1904,0.1397
26.5100,0.3518,0.0193,0.0000,5.1689,0.1399
26.5200,0.3518,0.0193,0.0000,5.1933,0.1400
26.5300,0.3518,0.0193,0.0000,5.1718,0.1402
26.5400,0.3518,0.0193,0.0000,5.1961,0.1403
26.5500,0.3518,0.0193,0.0000,5.1747,0.1404
26.5600,0.3518,0.0193,0.0000,5.1990,0.1406
26.5700,0.3518,0.0193,0.0000,5.1775,0.1407
26.5800,0.3518,0.0193,0.0000,5.2018,0.1407
26.5900,0.3518,0.0193,0.0000,5.1804,0.1408
26.6000,0.3518,0.0193,0.0000,5.2047,0.1409
26.6100,0.3518,0.0193,0.0000,5.1832,0.1410
26.6200,0.3518,0.0193,0.0000,5.2075,0.1410
26.6300,0.3518,0.0193,0.0000,5.1861,0.1411
26.6400,0.3518,0.0193,0.0000,5.2104,0.1412
26.6500,0.3518,0.0193,0.0000,5.1889,0.1412
26.6600,0.3518,0.0193,0.0000,5.2132,0.1412
26.6700,0.3518,0.0193,0.0000,5.1918,0.1413
26.6800,0.3518,0.0193,0.0000,5.2160,0.1413
26.6900,0.3518,0.0193,0.0000,5.1946,0.1413
26.7000,0.3518,0.0193,0.0000,5.2188,0.1413
26.7100,0.3518,0.0193,0.0000,5.1974,0.1413
26.7200,0.3518,0.0193,0.0000,5.2216,0.1413
26.7300,0.3518,0.0193,0.0000,5.2002,0.1413
26.7400,0.3518,0.0193,0.0000,5.2244,0.1413
26.7500,0.3518,0.0193,0.0000,5.2030,0.1413
26.7600,0.3518,0.0193,0.0000,5.2272,0.1412
26.7700,0.3518,0.0193,0.0000,5.2057,0.1412
26.7800,0.3518,0.0193,0.0000,5.2300,0.1411
26.7900,0.3518,0.0193,0.0000,5.2085,0.1411
26.8000,0.3518,0.0193,0.0000,5.2328,0.1410
26.8100,0.3518,0.0193,0.0000,5.2113,0.1409
26.8200,0.3518,0.0193,0.0000,5.2355,0.1409
26.8300,0.3518,0.0193,0.0000,5.2141,0.1408
26.8400,0.3518,0.0193,0.0000,5.2383,0.1407
26.8500,0.3518,0.0193,0.0000,5.2169,0.1406
26.8600,0.3518,0.0193,0.0000,5.2410,0.1406
26.8700,0.3518,0.0193,0.0000,5.2196,0.1405
26.8800,0.3518,0.0193,0.0000,5.2438,0.1404
26.8900,0.3518,0.0193,0.0000,5.2224,0.1403
26.9000,0.3518,0.0193,0.0000,5.2465,0.1402
26.9100,0.3518,0.0193,0.0000,5.2251,0.1402
26.9200,0.3518,0.0193,0.0000,5.2492,0.1401
26.9300,0.3518,0.0193,0.0000,5.2278,0.1400
26.9400,0.3518,0.0193,0.0000,5.2520,0.1399
26.9500,0.3518,0.0193,0.0000,5.2306,0.1398
26.9600,0.3518,0.0193,0.0000,5.2547,0.1397
26.9700,0.3518,0.0193,0.0000,5.2332,0.1396
26.9800,0.3518,0.0193,0.0000,5.2574,0.1394
26.9900,0.3518,0.0193,0.0000,5.2360,0.1394
27.0000,0.3518,0.0193,0.0000,5.2600,0.1392
27.0100,0.3518,0.0193,0.0000,5.2390,0.1392
27.0200,0.3518,0.0193,0.0000,5.2629,0.1391
27.0300,0.3518,0.0193,0.0000,5.2417,0.1391
27.0400,0.3518,0.0193,0.0000,5.2657,0.1390
27.0500,0.3518,0.0193,0.0000,5.2444,0.1390
27.0600,0.3518,0.0193,0.0000,5.2685,0.1390
27.0700,0.3518,0.0193,0.0000,5.2471,0.1390
27.0800,0.3518,0.0193,0.0000,5.2712,0.1389
27.0900,0.3518,0.0193,0.0000,5.2498,0.1389
27.1000,0.3518,0.0193,0.0000,5.2739,0.1389
27.1100,0.3518,0.0193,0.0000,5.2525,0.1388
27.1200,0.3518,0.0193,0.0000,5.2766,0.1387
27.1300,0.3518,0.0193,0.0000,5.2552,0.1386
27.1400,0.3518,0.0193,0.0000,5.2792,0.1384
27.1500,0.3518,0.0193,0.0000,5.2578,0.1383
27.1600,0.3518,0.0193,0.0000,5.2819,0.1382
27.1700,0.3518,0.0193,0.0000,5.2605,0.1380
27.1800,0.3518,0.0193,0.0000,5.2845,0.1379
27.1900,0.3518,0.0193,0.0000,5.2631,0.1377
27.2000,0.3518,0.0193,0.0000,5.2872,0.1375
27.2100,0.3518,0.0193,0.0000,5.2658,0.1374
27.2200,0.3518,0.0193,0.0000,5.2898,0.1372
27.2300,0.3518,0.0193,0.0000,5.2684,0.1371
27.2400,0.3518,0.0193,0.0000,5.2924,0.1369
27.2500,0.3518,0.0193,0.0000,5.2710,0.1367
27.2600,0.3518,0.0193,0.0000,5.2950,0.1366
27.2700,0.3518,0.0193,0.0000,5.2736,0.1364
27.2800,0.3518,0.0193,0.0000,5.2977,0.1362
27.2900,0.3518,0.0193,0.0000,5.2763,0.1361
27.3000,0.3518,0.0193,0.0000,5.3003,0.1359
27.3100,0.3518,0.0193,0.0000,5.2789,0.1357
27.3200,0.3518,0.0193,0.0000,5.3029,0.1356
27.3300,0.3518,0.0193,0.0000,5.2815,0.1354
27.3400,0.3518,0.0193,0.0000,5.3055,0.1353
27.3500,0.3518,0.0193,0.0000,5.2841,0.1351
27.3600,0.3518,0.0193,0.0000,5.3081,0.1349
27.3700,0.3518,0.0193,0.0000,5.2867,0.1348
27.3800,0.3518,0.0193,0.0000,5.3106,0.1346
27.3900,0.3518,0.0193,0.0000,5.2892,0.1345
27.4000,0.3518,0.0193,0.0000,5.3132,0.1343
27.4100,0.3518,0.0193,0.0000,5.2918,0.1341
27.4200,0.3518,0.0193,0.0000,5.3158,0.1339
27.4300,0.3518,0.0193,0.0000,5.2944,0.1338
27.4400,0.3518,0.0193,0.0000,5.3183,0.1336
27.4500,0.3518,0.0193,0.0000,5.2969,0.1334
27.4600,0.3518,0.0193,0.0000,5.3209,0.1332
27.4700,0.3518,0.0193,0.0000,5.2995,0.1331
27.4800,0.3518,0.0193,0.0000,5.3234,0.1329
27.4900,0.3518,0.0193,0.0000,5.3020,0.1327
27.5000,0.3518,0.0193,0.0000,5.3259,0.1325
27.5100,0.3518,0.0193,0.0000,5.3046,0.1324
27.5200,0.3518,0.0193,0.0000,5.3285,0.1322
27.5300,0.3518,0.0193,0.0000,5.3071,0.1321
27.5400,0.3518,0.0193,0.0000,5.3310,0.1319
27.5500,0.3518,0.0193,0.0000,5.3096,0.1317
27.5600,0.3518,0.0193,0.0000,5.3336,0.1316
27.5700,0.3518,0.0193,0.0000,5.3121,0.1314
27.5800,0.3518,0.0193,0.0000,5.3362,0.1313
27.5900,0.3518,0.0193,0.0000,5.3147,0.1311
27.6000,0.3518,0.0193,0.0000,5.3387,0.1310
27.6100,0.3518,0.0193,0.0000,5.3173,0.1309
27.6200,0.3518,0.0193,0.0000,5.3412,0.1308
27.6300,0.3518,0.0193,0.0000,5.3198,0.1307
27.6400,0.3518,0.0193,0.0000,5.3437,0.1306
27.6500,0.3518,0.0193,0.0000,5.3224,0.1305
27.6600,0.3518,0.0193,0.0000,5.3462,0.1303
27.6700,0.3518,0.0193,0.0000,5.3249,0.1302
27.6800,0.3518,0.0193,0.0000,5.3487,0.1301
27.6900,0.3518,0.0193,0.0000,5.3274,0.1299
27.7000,0.3518,0.0193,0.0000,5.3512,0.1298
27.7100,0.3518,0.0193,0.0000,5.3298,0.1296
27.7200,0.3518,0.0193,0.0000,5.3537,0.1294
27.7300,0.3518,0.0193,0.0000,5.3323,0.1293
27.7400,0.3518,0.0193,0.0000,5.3561,0.1291
27.7500,0.3518,0.0193,0.0000,5.3348,0.1289
27.7600,0.3518,0.0193,0.0000,5.3586,0.1288
27.7700,0.3518,0.0193,0.0000,5.3372,0.1286
27.7800,0.3518,0.0193,0.0000,5.3610,0.1284
27.7900,0.3518,0.0193,0.0000,5.3397,0.1282
27.8000,0.3518,0.0193,0.0000,5.3635,0.1281
27.8100,0.3518,0.0193,0.0000,5.3421,0.1279
27.8200,0.3518,0.0193,0.0000,5.3659,0.1277
27.8300,0.3518,0.0193,0.0000,5.3446,0.1275
27.8400,0.3518,0.0193,0.0000,5.3683,0.1274
27.8500,0.3518,0.0193,0.0000,5.3470,0.1272
27.8600,0.3518,0.0193,0.0000,5.3708,0.1270
27.8700,0.3518,0.0193,0.0000,5.3495,0.1268
27.8800,0.3518,0.0193,0.0000,5.3732,0.1267
27.8900,0.3518,0.0193,0.0000,5.3519,0.1265
27.9000,0.3518,0.0193,0.0000,5.3756,0.1263
27.9100,0.3518,0.0193,0.0000,5.3542,0.1262
27.9200,0.3518,0.0193,0.0000,5.3780,0.1260
27.9300,0.3518,0.0193,0.0000,5.3567,0.1258
27.9400,0.3518,0.0193,0.0000,5.3804,0.1256
27.9500,0.3518,0.0193,0.0000,5.3591,0.1255
27.9600,0.3518,0.0193,0.0000,5.3828,0.1253
27.9700,0.3518,0.0193,0.0000,5.3615,0.1251
27.9800,0.3518,0.0193,0.0000,5.3852,0.1249
27.9900,0.3518,0.0193,0.0000,5.3639,0.1248
28.0000,0.3518,0.0193,0.0000,5.3876,0.1246
28.0100,0.3518,0.0193,0.0000,5.3662,0.1244
28.0200,0.3518,0.0193,0.0000,5.3899,0.1242
28.0300,0.3518,0.0193,0.0000,5.3686,0.1241
28.0400,0.3518,0.0193,0.0000,5.3923,0.1239
28.0500,0.3518,0.0193,0.0000,5.3710,0.1237
28.0600,0.3518,0.0193,0.0000,5.3946,0.1236
28.0700,0.3518,0.0193,0.0000,5.3733,0.1234
28.0800,0.3518,0.0193,0.0000,5.3970,0.1232
28.0900,0.3518,0.0193,0.0000,5.3757,0.1231
28.1000,0.3518,0.0193,0.0000,5.3993,0.1229
28.1100,0.3518,0.0193,0.0000,5.3780,0.1227
28.1200,0.3518,0.0193,0.0000,5.4017,0.1225
28.1300,0.3518,0.0193,0.0000,5.3804,0.1224
28.1400,0.3518,0.0193,0.0000,5.4040,0.1222
28.1500,0.3518,0.0193,0.0000,5.3827,0.1220
28.1600,0.3518,0.0193,0.0000,5.4063,0.1219
28.1700,0.3518,0.0193,0.0000,5.3850,0.1217
28.1800,0.3518,0.0193,0.0000,5.4086,0.1215
28.1900,0.3518,0.0193,0.0000,5.3873,0.1214
28.2000,0.3518,0.0193,0.0000,5.4110,0.1212
28.2100,0.3518,0.0193,0.0000,5.3896,0.1210
28.2200,0.3518,0.0193,0.0000,5.4133,0.1209
28.2300,0.3518,0.0193,0.0000,5.3920,0.1207
28.2400,0.3518,0.0193,0.0000,5.4155,0.1205
28.2500,0.3518,0.0193,0.0000,5.3942,0.1204
28.2600,0.3518,0.0193,0.0000,5.4178,0.1202
28.2700,0.3518,0.0193,0.0000,5.3965,0.1200
28.2800,0.3518,0.0193,0.0000,5.4201,0.1198
28.2900,0.3518,0.0193,0.0000,5.3988,0.1197
28.3000,0.3518,0.0193,0.0000,5.4224,0.1195
28.3100,0.3518,0.0193,0.0000,5.4011,0.1193
28.3200,0.3518,0.0193,0.0000,5.4247,0.1192
28.3300,0.3518,0.0193,0.0000,5.4034,0.1190
28.3400,0.3518,0.0193,0.0000,5.4269,0.1188
28.3500,0.3518,0.0193,0.0000,5.4056,0.1186
28.3600,0.3518,0.0193,0.0000,5.4292,0.1185
28.3700,0.3518,0.0193,0.0000,5.4079,0.1183
28.3800,0.3518,0.0193,0.0000,5.4314,0.1181
28.3900,0.3518,0.0193,0.0000,5.4101,0.1180
28.4000,0.3518,0.0193,0.0000,5.4337,0.1178
28.4100,0.3518,0.0193,0.0000,5.4124,0.1176
28.4200,0.3518,0.0193,0.0000,5.4359,0.1175
28.4300,0.3518,0.0193,0.0000,5.4146,0.1173
28.4400,0.3518,0.0193,0.0000,5.4381,0.1171
28.4500,0.3518,0.0193,0.0000,5.4168,0.1170
28.4600,0.3518,0.0193,0.0000,5.4404,0.1168
28.4700,0.3518,0.0193,0.0000,5.4191,0.1166
28.4800,0.3518,0.0193,0.0000,5.4426,0.1164
28.4900,0.3518,0.0193,0.0000,5.4213,0.1163
28.5000,0.3518,0.0193,0.0000,5.4448,0.1161
28.5100,0.3518,0.0193,0.0000,5.4235,0.1160
28.5200,0.3518,0.0193,0.0000,5.4470,0.1158
28.5300,0.3518,0.0193,0.0000,5.4257,0.1156
28.5400,0.3518,0.0193,0.0000,5.4492,0.1154
28.5500,0.3518,0.0193,0.0000,5.4279,0.1153
28.5600,0.3518,0.0193,0.0000,5.4514,0.1151
28.5700,0.3518,0.0193,0.0000,5.4301,0.1149
28.5800,0.3518,0.0193,0.0000,5.4535,0.1147
28.5900,0.3518,0.0193,0.0000,5.4322,0.1146
28.6000,0.3518,0.0193,0.0000,5.4557,0.1144
28.6100,0.3518,0.0193,0.0000,5.4344,0.1142
28.6200,0.3518,0.0193,0.0000,5.4579,0.1141
28.6300,0.3518,0.0193,0.0000,5.4366,0.1139
28.6400,0.3518,0.0193,0.0000,5.4601,0.1137
28.6500,0.3518,0.0193,0.0000,5.4388,0.1136
28.6600,0.3518,0.0193,0.0000,5.4622,0.1134
28.6700,0.3518,0.0193,0.0000,5.4409,0.1132
28.6800,0.3518,0.0193,0.0000,5.4644,0.1131
28.6900,0.3518,0.0193,0.0000,5.4431,0.1129
28.7000,0.3518,0.0193,0.0000,5.4665,0.1128
28.7100,0.3518,0.0193,0.0000,5.4452,0.1126
28.7200,0.3518,0.0193,0.0000,5.4686,0.1124
28.7300,0.3518,0.0193,0.0000,5.4474,0.1123
28.7400,0.3518,0.0193,0.0000,5.4708,0.1121
28.7500,0.3518,0.0193,0.0000,5.4495,0.1119
28.7600,0.3518,0.0193,0.0000,5.4729,0.1118
28.7700,0.3518,0.0193,0.0000,5.4516,0.1116
28.7800,0.3518,0.0193,0.0000,5.4750,0.1114
28.7900,0.3518,0.0193,0.0000,5.4537,0.1113
28.8000,0.3518,0.0193,0.0000,5.4771,0.1111
28.8100,0.3518,0.0193,0.0000,5.4559,0.1109
28.8200,0.3518,0.0193,0.0000,5.4792,0.1108
28.8300,0.3518,0.0193,0.0000,5.4579,0.1106
28.8400,0.3518,0.0193,0.0000,5.4813,0.1104
28.8500,0.3518,0.0193,0.0000,5.4601,0.1103
28.8600,0.3518,0.0193,0.0000,5.4834,0.1101
28.8700,0.3518,0.0193,0.0000,5.4634,0.1104
28.8800,0.3518,0.0193,0.0000,5.4860,0.1104
28.8900,0.3518,0.0193,0.0000,5.4662,0.1108
28.9000,0.3518,0.0193,0.0000,5.4890,0.1111
28.9100,0.3518,0.0193,0.0000,5.4685,0.1116
28.9200,0.3518,0.0193,0.0000,5.4916,0.1120
28.9300,0.3518,0.0193,0.0000,5.4708,0.1125
28.9400,0.3518,0.0193,0.0000,5.4941,0.1130
28.9500,0.3518,0.0193,0.0000,5.4731,0.1136
28.9600,0.3518,0.0193,0.0000,5.4964,0.1141
28.9700,0.3518,0.0193,0.0000,5.4753,0.1143
28.9800,0.3518,0.0193,0.0000,5.4987,0.1147
28.9900,0.3518,0.0193,0.0000,5.4776,0.1147
29.0000,0.3518,0.0193,0.0000,5.5009,0.1149
29.0100,0.3518,0.0193,0.0000,5.4798,0.1148
29.0200,0.3518,0.0193,0.0000,5.5031,0.1148
29.0300,0.3518,0.0193,0.0000,5.4820,0.1147
29.0400,0.3518,0.0193,0.0000,5.5053,0.1146
29.0500,0.3518,0.0193,0.0000,5.4842,0.1145
29.0600,0.3518,0.0193,0.0000,5.5075,0.1144
29.0700,0.3518,0.0193,0.0000,5.4863,0.1142
29.0800,0.3518,0.0193,0.0000,5.5097,0.1141
29.0900,0.3518,0.0193,0.0000,5.4885,0.1139
29.1000,0.3518,0.0193,0.0000,5.5119,0.1138
29.1100,0.3518,0.0193,0.0000,5.4907,0.1137
29.1200,0.3518,0.0193,0.0000,5.5141,0.1135
29.1300,0.3518,0.0193,0.0000,5.4929,0.1134
29.1400,0.3518,0.0193,0.0000,5.5162,0.1132
29.1500,0.3518,0.0193,0.0000,5.4951,0.1131
29.1600,0.3518,0.0193,0.0000,5.5184,0.1129
29.1700,0.3518,0.0193,0.0000,5.4972,0.1128
29.1800,0.3518,0.0193,0.0000,5.5206,0.1127
29.1900,0.3518,0.0193,0.0000,5.4994,0.1125
29.2000,0.3518,0.0193,0.0000,5.5227,0.1124
29.2100,0.3518,0.0193,0.0000,5.5016,0.1123
29.2200,0.3518,0.0193,0.0000,5.5249,0.1122
29.2300,0.3518,0.0193,0.0000,5.5037,0.1120
29.2400,0.3518,0.0193,0.0000,5.5271,0.1119
29.2500,0.3518,0.0193,0.0000,5.5059,0.1118
29.2600,0.3518,0.0193,0.0000,5.5292,0.1117
29.2700,0.3518,0.0193,0.0000,5.5081,0.1116
29.2800,0.3518,0.0193,0.0000,5.5314,0.1115
29.2900,0.3518,0.0193,0.0000,5.5103,0.1114
29.3000,0.3518,0.0193,0.0000,5.5336,0.1113
29.3100,0.3518,0.0193,0.0000,5.5124,0.1112
29.3200,0.3518,0.0193,0.0000,5.5357,0.1111
29.3300,0.3518,0.0193,0.0000,5.5146,0.1110
29.3400,0.3518,0.0193,0.0000,5.5379,0.1109
29.3500,0.3518,0.0193,0.0000,5.5168,0.1109
29.3600,0.3518,0.0193,0.0000,5.5400,0.1108
29.3700,0.3518,0.0193,0.0000,5.5189,0.1107
29.3800,0.3518,0.0193,0.0000,5.5422,0.1106
29.3900,0.3518,0.0193,0.0000,5.5211,0.1105
29.4000,0.3518,0.0193,0.0000,5.5444,0.1104
29.4100,0.3518,0.0193,0.0000,5.5228,0.1102
29.4200,0.3518,0.0193,0.0000,5.5476,0.1105
29.4300,0.3518,0.0193,0.0000,5.5256,0.1104
29.4400,0.3518,0.0193,0.0000,5.5499,0.1108
29.4500,0.3518,0.0193,0.0000,5.5282,0.1109
29.4600,0.3518,0.0193,0.0000,5.5521,0.1112
29.4700,0.3518,0.0193,0.0000,5.5307,0.1115
29.4800,0.3518,0.0193,0.0000,5.5544,0.1118
29.4900,0.3518,0.0193,0.0000,5.5331,0.1121
29.5000,0.3518,0.0193,0.0000,5.5566,0.1124
29.5100,0.3518,0.0193,0.0000,5.5354,0.1128
29.5200,0.3518,0.0193,0.0000,5.5588,0.1128
29.5300,0.3518,0.0193,0.0000,5.5376,0.1131
29.5400,0.3518,0.0193,0.0000,5.5609,0.1130
29.5500,0.3518,0.0193,0.0000,5.5398,0.1131
29.5600,0.3518,0.0193,0.0000,5.5631,0.1130
29.5700,0.3518,0.0193,0.0000,5.5420,0.1129
29.5800,0.3518,0.0193,0.0000,5.5652,0.1128
29.5900,0.3518,0.0193,0.0000,5.5442,0.1127
29.6000,0.3518,0.0193,0.0000,5.5674,0.1126
29.6100,0.3518,0.0193,0.0000,5.5463,0.1125
29.6200,0.3518,0.0193,0.0000,5.5695,0.1123
29.6300,0.3518,0.0193,0.0000,5.5485,0.1122
29.6400,0.3518,0.0193,0.0000,5.5717,0.1120
29.6500,0.3518,0.0193,0.0000,5.5506,0.1119
29.6600,0.3518,0.0193,0.0000,5.5738,0.1117
29.6700,0.3518,0.0193,0.0000,5.5528,0.1116
29.6800,0.3518,0.0193,0.0000,5.5760,0.1115
29.6900,0.3518,0.0193,0.0000,5.5549,0.1114
29.7000,0.3518,0.0193,0.0000,5.5781,0.1112
29.7100,0.3518,0.0193,0.0000,5.5571,0.1111
29.7200,0.3518,0.0193,0.0000,5.5803,0.1110
29.7300,0.3518,0.0193,0.0000,5.5592,0.1109
29.7400,0.3518,0.0193,0.0000,5.5824,0.1108
29.7500,0.3518,0.0193,0.0000,5.5614,0.1106
29.7600,0.3518,0.0193,0.0000,5.5845,0.1105
29.7700,0.3518,0.0193,0.0000,5.5635,0.1104
29.7800,0.3518,0.0193,0.0000,5.5867,0.1103
29.7900,0.3518,0.0193,0.0000,5.5656,0.1102
29.8000,0.3518,0.0193,0.0000,5.5888,0.1101
29.8100,0.3518,0.0193,0.0000,5.5678,0.1100
29.8200,0.3518,0.0193,0.0000,5.5910,0.1099
29.8300,0.3518,0.0193,0.0000,5.5699,0.1098
29.8400,0.3518,0.0193,0.0000,5.5931,0.1097
29.8500,0.3518,0.0193,0.0000,5.5721,0.1096
29.8600,0.3518,0.0193,0.0000,5.5952,0.1095
29.8700,0.3518,0.0193,0.0000,5.5742,0.1094
29.8800,0.3518,0.0193,0.0000,5.5973,0.1093
29.8900,0.3518,0.0193,0.0000,5.5763,0.1093
29.9000,0.3518,0.0193,0.0000,5.5995,0.1092
29.9100,0.3518,0.0193,0.0000,5.5785,0.1091
29.9200,0.3518,0.0193,0.0000,5.6016,0.1090
29.9300,0.3518,0.0193,0.0000,5.5806,0.1089
29.9400,0.3518,0.0193,0.0000,5.6037,0.1088
29.9500,0.3518,0.0193,0.0000,5.5827,0.1087
29.9600,0.3518,0.0193,0.0000,5.6058,0.1086
29.9700,0.3518,0.0193,0.0000,5.5848,0.1085
29.9800,0.3518,0.0193,0.0000,5.6079,0.1084
29.9900,0.3518,0.0193,0.0000,5.5868,0.1082
31.9900,0.3518,0.0193,0.0000,5.5704,0.1082
32.0000,0.3518,0.0193,0.0000,5.5489,0.1062
32.0100,0.3518,0.0193,0.0000,5.5714,0.1043
32.0200,0.3518,0.0193,0.0000,5.5499,0.1025
32.0300,0.3518,0.0193,0.0000,5.5725,0.1007
32.0400,0.3518,0.0193,0.0000,5.5509,0.0990
32.0500,0.3518,0.0193,0.0000,5.5735,0.0974
32.0600,0.3518,0.0193,0.0000,5.5520,0.0959
32.0700,0.3518,0.0193,0.0000,5.5746,0.0944
32.0800,0.3518,0.0193,0.0000,5.5530,0.0930
32.0900,0.3518,0.0193,0.0000,5.5756,0.0916
32.1000,0.3518,0.0193,0.0000,5.5541,0.0903
32.1100,0.3518,0.0193,0.0000,5.5767,0.0890
32.1200,0.3518,0.0193,0.0000,5.5551,0.0878
32.1300,0.3518,0.0193,0.0000,5.5778,0.0867
32.1400,0.3518,0.0193,0.0000,5.5562,0.0856
32.1500,0.3518,0.0193,0.0000,5.5786,0.0844
32.1600,0.3518,0.0193,0.0000,5.5574,0.0834
32.1700,0.3518,0.0193,0.0000,5.5792,0.0822
32.1800,0.3518,0.0193,0.0000,5.5582,0.0811
32.1900,0.3518,0.0193,0.0000,5.5802,0.0800
32.2000,0.3518,0.0193,0.0000,5.5590,0.0789
32.2100,0.3518,0.0193,0.0000,5.5813,0.0778
32.2200,0.3518,0.0193,0.0000,5.5599,0.0768
32.2300,0.3518,0.0193,0.0000,5.5823,0.0758
32.2400,0.3518,0.0193,0.0000,5.5609,0.0748
32.2500,0.3518,0.0193,0.0000,5.5834,0.0739
32.2600,0.3518,0.0193,0.0000,5.5619,0.0729
32.2700,0.3518,0.0193,0.0000,5.5845,0.0723
32.2800,0.3518,0.0193,0.0000,5.5630,0.0714
32.2900,0.3518,0.0193,0.0000,5.5856,0.0709
32.3000,0.3518,0.0193,0.0000,5.5640,0.0702
32.3100,0.3518,0.0193,0.0000,5.5867,0.0696
32.3200,0.3518,0.0193,0.0000,5.5651,0.0691
32.3300,0.3518,0.0193,0.0000,5.5878,0.0686
32.3400,0.3518,0.0193,0.0000,5.5662,0.0681
32.3500,0.3518,0.0193,0.0000,5.5889,0.0676
32.3600,0.3518,0.0193,0.0000,5.5673,0.0672
32.3700,0.3518,0.0193,0.0000,5.5899,0.0668
32.3800,0.3518,0.0193,0.0000,5.5684,0.0663
32.3900,0.3518,0.0193,0.0000,5.5910,0.0659
32.4000,0.3518,0.0193,0.0000,5.5695,0.0656
32.4100,0.3518,0.0193,0.0000,5.5921,0.0652
32.4200,0.3518,0.0193,0.0000,5.5705,0.0648
32.4300,0.3518,0.0193,0.0000,5.5932,0.0645
32.4400,0.3518,0.0193,0.0000,5.5716,0.0641
32.4500,0.3518,0.0193,0.0000,5.5942,0.0638
32.4600,0.3518,0.0193,0.0000,5.5727,0.0635
32.4700,0.3518,0.0193,0.0000,5.5953,0.0631
32.4800,0.3518,0.0193,0.0000,5.5737,0.0628
32.4900,0.3518,0.0193,0.0000,5.5964,0.0625
32.5000,0.3518,0.0193,0.0000,5.5748,0.0622
32.5100,0.3518,0.0193,0.0000,5.5974,0.0619
32.5200,0.3518,0.0193,0.0000,5.5758,0.0616
32.5300,0.3518,0.0193,0.0000,5.5984,0.0613
32.5400,0.3518,0.0193,0.0000,5.5769,0.0610
32.5500,0.3398,0.0074,0.0000,5.5995,0.0607
32.5600,0.3398,0.0074,0.0000,5.5779,0.0604
32.5700,0.3398,0.0074,0.0000,5.6005,0.0601
32.5800,0.3398,0.0074,0.0000,5.5789,0.0598
32.5900,0.3398,0.0074,0.0000,5.6014,0.0595
32.6000,0.3398,0.0074,0.0000,5.5796,0.0592
32.6100,0.3398,0.0074,0.0000,5.6021,0.0588
32.6200,0.3398,0.0074,0.0000,5.5802,0.0582
32.6300,0.3398,0.0074,0.0000,5.6025,0.0576
32.6400,0.3398,0.0074,0.0000,5.5805,0.0569
32.6500,0.3398,0.0074,0.0000,5.6027,0.0561
32.6600,0.3398,0.0074,0.0000,5.5806,0.0551
32.6700,0.3398,0.0074,0.0000,5.6028,0.0540
32.6800,0.3398,0.0074,0.0000,5.5806,0.0528
32.6900,0.3398,0.0074,0.0000,5.6027,0.0515
32.7000,0.3398,0.0074,0.0000,5.5805,0.0500
32.7100,0.3398,0.0074,0.0000,5.6025,0.0485
32.7200,0.3398,0.0074,0.0000,5.5802,0.0469
32.7300,0.3398,0.0074,0.0000,5.6022,0.0453
32.7400,0.3398,0.0074,0.0000,5.5798,0.0435
32.7500,0.3398,0.0074,0.0000,5.6017,0.0418
32.7600,0.3398,0.0074,0.0000,5.5794,0.0400
32.7700,0.3398,0.0074,0.0000,5.6012,0.0381
32.7800,0.3398,0.0074,0.0000,5.5788,0.0362
32.7900,0.3398,0.0074,0.0000,5.6006,0.0344
32.8000,0.3398,0.0074,0.0000,5.5782,0.0324
32.8100,0.3398,0.0074,0.0000,5.6000,0.0305
32.8200,0.3398,0.0074,0.0000,5.5775,0.0286
32.8300,0.3398,0.0074,0.0000,5.5993,0.0267
32.8400,0.3398,0.0074,0.0000,5.5768,0.0248
32.8500,0.3398,0.0074,0.0000,5.5985,0.0229
32.8600,0.3398,0.0074,0.0000,5.5760,0.0210
32.8700,0.3398,0.0074,0.0000,5.5977,0.0191
32.8800,0.3398,0.0074,0.0000,5.5751,0.0172
32.8900,0.3398,0.0074,0.0000,5.5968,0.0154
32.9000,0.3398,0.0074,0.0000,5.5749,0.0138
32.9100,0.3398,0.0074,0.0000,5.5970,0.0123
32.9200,0.3398,0.0074,0.0000,5.5727,0.0103
32.9300,0.3398,0.0074,0.0000,5.5950,0.0085
32.9400,0.3398,0.0074,0.0000,5.5720,0.0066
32.9500,0.3398,0.0074,0.0000,5.5938,0.0048
32.9600,0.3398,0.0074,0.0000,5.5708,0.0030
32.9700,0.3398,0.0074,0.0000,5.5925,0.0011
32.9800,0.3398,0.0074,0.0000,5.5697,-0.0007
32.9900,0.3398,0.0074,0.0000,5.5911,-0.0026
33.0000,0.3398,0.0074,0.0000,5.5683,-0.0047
33.0100,0.3398,0.0074,0.0000,5.5901,-0.0069
33.0200,0.3398,0.0074,0.0000,5.5667,-0.0087
33.0300,0.3398,0.0074,0.0000,5.5885,-0.0105
33.0400,0.3398,0.0074,0.0000,5.5662,-0.0121
33.0500,0.3398,0.0074,0.0000,5.5862,-0.0142
33.0600,0.3398,0.0074,0.0000,5.5675,-0.0148
33.0700,0.3398,0.0074,0.0000,5.5877,-0.0159
33.0800,0.3398,0.0074,0.0000,5.5663,-0.0166
33.0900,0.3398,0.0074,0.0000,5.5874,-0.0172
33.1000,0.3398,0.0074,0.0000,5.5656,-0.0175
33.1100,0.3398,0.0074,0.0000,5.5869,-0.0180
33.1200,0.3398,0.0074,0.0000,5.5648,-0.0181
33.1300,0.3398,0.0074,0.0000,5.5863,-0.0182
33.1400,0.3398,0.0074,0.0000,5.5639,-0.0184
33.1500,0.3398,0.0074,0.0000,5.5855,-0.0180
33.1600,0.3398,0.0074,0.0000,5.5629,-0.0189
33.1700,0.3398,0.0074,0.0000,5.5846,-0.0193
33.1800,0.3398,0.0074,0.0000,5.5620,-0.0201
33.1900,0.3398,0.0074,0.0000,5.5836,-0.0207
33.2000,0.3398,0.0074,0.0000,5.5610,-0.0215
33.2100,0.3398,0.0074,0.0000,5.5827,-0.0222
33.2200,0.3398,0.0074,0.0000,5.5600,-0.0231
33.2300,0.3398,0.0074,0.0000,5.5817,-0.0238
33.2400,0.3398,0.0074,0.0000,5.5590,-0.0247
33.2500,0.3398,0.0074,0.0000,5.5807,-0.0254
33.2600,0.3398,0.0074,0.0000,5.5580,-0.0262
33.2700,0.3398,0.0074,0.0000,5.5797,-0.0270
33.2800,0.3398,0.0074,0.0000,5.5570,-0.0277
33.2900,0.3398,0.0074,0.0000,5.5787,-0.0285
33.3000,0.3398,0.0074,0.0000,5.5560,-0.0292
33.3100,0.3398,0.0074,0.0000,5.5777,-0.0299
33.3200,0.3398,0.0074,0.0000,5.5550,-0.0305
33.3300,0.3398,0.0074,0.0000,5.5767,-0.0312
33.3400,0.3398,0.0074,0.0000,5.5540,-0.0318
33.3500,0.3398,0.0074,0.0000,5.5757,-0.0324
33.3600,0.3398,0.0074,0.0000,5.5530,-0.0330
33.3700,0.3398,0.0074,0.0000,5.5747,-0.0336
33.3800,0.3398,0.0074,0.0000,5.5520,-0.0341
33.3900,0.3398,0.0074,0.0000,5.5737,-0.0346
33.4000,0.3398,0.0074,0.0000,5.5511,-0.0351
33.4100,0.3398,0.0074,0.0000,5.5728,-0.0356
33.4200,0.3398,0.0074,0.0000,5.5501,-0.0360
33.4300,0.3398,0.0074,0.0000,5.5718,-0.0365
33.4400,0.3398,0.0074,0.0000,5.5485,-0.0371
33.4500,0.3398,0.0074,0.0000,5.5702,-0.0377
33.4600,0.3398,0.0074,0.0000,5.5485,-0.0380
33.4700,0.3398,0.0074,0.0000,5.5693,-0.0385
33.4800,0.3398,0.0074,0.0000,5.5475,-0.0387
33.4900,0.3398,0.0074,0.0000,5.5687,-0.0391
33.5000,0.3398,0.0074,0.0000,5.5465,-0.0393
33.5100,0.3398,0.0074,0.0000,5.5680,-0.0396
33.5200,0.3398,0.0074,0.0000,5.5456,-0.0398
33.5300,0.3398,0.0074,0.0000,5.5674,-0.0399
33.5400,0.3398,0.0074,0.0000,5.5453,-0.0397
33.5500,0.3398,0.0074,0.0000,5.5661,-0.0397
33.5600,0.3398,0.0074,0.0000,5.5440,-0.0399
33.5700,0.3398,0.0074,0.0000,5.5654,-0.0399
33.5800,0.3398,0.0074,0.0000,5.5426,-0.0402
33.5900,0.3398,0.0074,0.0000,5.5664,-0.0396
33.6000,0.3398,0.0074,0.0000,5.5429,-0.0395
33.6100,0.3398,0.0074,0.0000,5.5661,-0.0388
33.6200,0.3398,0.0074,0.0000,5.5431,-0.0384
33.6300,0.3398,0.0074,0.0000,5.5657,-0.0377
33.6400,0.3398,0.0074,0.0000,5.5429,-0.0372
33.6500,0.3398,0.0074,0.0000,5.5652,-0.0362
33.6600,0.3398,0.0074,0.0000,5.5426,-0.0355
33.6700,0.3398,0.0074,0.0000,5.5647,-0.0345
33.6800,0.3398,0.0074,0.0000,5.5421,-0.0335
33.6900,0.3398,0.0074,0.0000,5.5641,-0.0332
33.7000,0.3398,0.0074,0.0000,5.5415,-0.0325
33.7100,0.3398,0.0074,0.0000,5.5634,-0.0323
33.7200,0.3398,0.0074,0.0000,5.5409,-0.0320
33.7300,0.3398,0.0074,0.0000,5.5628,-0.0319
33.7400,0.3398,0.0074,0.0000,5.5402,-0.0318
33.7500,0.3398,0.0074,0.0000,5.5621,-0.0318
33.7600,0.3398,0.0074,0.0000,5.5395,-0.0317
33.7700,0.3398,0.0074,0.0000,5.5614,-0.0318
33.7800,0.3398,0.0074,0.0000,5.5389,-0.0318
33.7900,0.3398,0.0074,0.0000,5.5607,-0.0318
33.8000,0.3398,0.0074,0.0000,5.5382,-0.0319
33.8100,0.3398,0.0074,0.0000,5.5601,-0.0319
33.8200,0.3398,0.0074,0.0000,5.5375,-0.0320
33.8300,0.3398,0.0074,0.0000,5.5594,-0.0320
33.8400,0.3398,0.0074,0.0000,5.5369,-0.0320
33.8500,0.3398,0.0074,0.0000,5.5587,-0.0321
33.8600,0.3398,0.0074,0.0000,5.5362,-0.0321
33.8700,0.3398,0.0074,0.0000,5.5581,-0.0322
33.8800,0.3398,0.0074,0.0000,5.5356,-0.0322
33.8900,0.3398,0.0074,0.0000,5.5575,-0.0322
33.9000,0.3398,0.0074,0.0000,5.5350,-0.0322
33.9100,0.3398,0.0074,0.0000,5.5569,-0.0322
33.9200,0.3398,0.0074,0.0000,5.5343,-0.0322
33.9300,0.3398,0.0074,0.0000,5.5563,-0.0321
33.9400,0.3398,0.0074,0.0000,5.5338,-0.0321
33.9500,0.3398,0.0074,0.0000,5.5557,-0.0321
33.9600,0.3398,0.0074,0.0000,5.5332,-0.0320
33.9700,0.3398,0.0074,0.0000,5.5551,-0.0319
33.9800,0.3398,0.0074,0.0000,5.5326,-0.0319
33.9900,0.3398,0.0074,0.0000,5.5550,-0.0316
34.0000,0.3398,0.0074,0.0000,5.5321,-0.0315
34.0100,0.3398,0.0074,0.0000,5.5546,-0.0312
34.0200,0.3398,0.0074,0.0000,5.5318,-0.0310
34.0300,0.3398,0.0074,0.0000,5.5541,-0.0307
34.0400,0.3398,0.0074,0.0000,5.5314,-0.0305
34.0500,0.3398,0.0074,0.0000,5.5535,-0.0302
34.0600,0.3398,0.0074,0.0000,5.5309,-0.0299
34.0700,0.3398,0.0074,0.0000,5.5530,-0.0296
34.0800,0.3398,0.0074,0.0000,5.5305,-0.0293
34.0900,0.3398,0.0074,0.0000,5.5525,-0.0292
34.1000,0.3398,0.0074,0.0000,5.5300,-0.0289
34.1100,0.3398,0.0074,0.0000,5.5520,-0.0288
34.1200,0.3398,0.0074,0.0000,5.5295,-0.0286
34.1300,0.3398,0.0074,0.0000,5.5515,-0.0285
34.1400,0.3398,0.0074,0.0000,5.5287,-0.0285
34.1500,0.3398,0.0074,0.0000,5.5514,-0.0283
34.1600,0.3398,0.0074,0.0000,5.5285,-0.0281
34.1700,0.3398,0.0074,0.0000,5.5509,-0.0279
34.1800,0.3398,0.0074,0.0000,5.5282,-0.0277
34.1900,0.3398,0.0074,0.0000,5.5505,-0.0275
34.2000,0.3398,0.0074,0.0000,5.5279,-0.0273
34.2100,0.3398,0.0074,0.0000,5.5500,-0.0270
34.2200,0.3398,0.0074,0.0000,5.5275,-0.0268
34.2300,0.3398,0.0074,0.0000,5.5496,-0.0265
34.2400,0.3398,0.0074,0.0000,5.5271,-0.0262
34.2500,0.3398,0.0074,0.0000,5.5491,-0.0261
34.2600,0.3398,0.0074,0.0000,5.5266,-0.0259
34.2700,0.3398,0.0074,0.0000,5.5487,-0.0257
34.2800,0.3398,0.0074,0.0000,5.5262,-0.0256
34.2900,0.3398,0.0074,0.0000,5.5482,-0.0254
34.3000,0.3398,0.0074,0.0000,5.5258,-0.0253
34.3100,0.3398,0.0074,0.0000,5.5478,-0.0252
34.3200,0.3398,0.0074,0.0000,5.5253,-0.0251
34.3300,0.3398,0.0074,0.0000,5.5473,-0.0250
34.3400,0.3398,0.0074,0.0000,5.5249,-0.0249
34.3500,0.3398,0.0074,0.0000,5.5469,-0.0248
34.3600,0.3398,0.0074,0.0000,5.5244,-0.0247
34.3700,0.3398,0.0074,0.0000,5.5465,-0.0246
34.3800,0.3398,0.0074,0.0000,5.5240,-0.0245
34.3900,0.3398,0.0074,0.0000,5.5461,-0.0244
34.4000,0.3398,0.0074,0.0000,5.5236,-0.0243
34.4100,0.3398,0.0074,0.0000,5.5456,-0.0242
34.4200,0.3398,0.0074,0.0000,5.5232,-0.0241
34.4300,0.3398,0.0074,0.0000,5.5452,-0.0240
34.4400,0.3398,0.0074,0.0000,5.5227,-0.0239
34.4500,0.3398,0.0074,0.0000,5.5448,-0.0238
34.4600,0.3398,0.0074,0.0000,5.5224,-0.0237
34.4700,0.3398,0.0074,0.0000,5.5444,-0.0236
34.4800,0.3398,0.0074,0.0000,5.5219,-0.0236
34.4900,0.3398,0.0074,0.0000,5.5440,-0.0235
34.5000,0.3398,0.0074,0.0000,5.5215,-0.0234
34.5100,0.3398,0.0074,0.0000,5.5436,-0.0233
34.5200,0.3398,0.0074,0.0000,5.5211,-0.0232
34.5300,0.3398,0.0074,0.0000,5.5432,-0.0231
34.5400,0.3398,0.0074,0.0000,5.5207,-0.0230
34.5500,0.3398,0.0074,0.0000,5.5428,-0.0229
34.5600,0.3398,0.0074,0.0000,5.5203,-0.0228
34.5700,0.3398,0.0074,0.0000,5.5424,-0.0227
34.5800,0.3398,0.0074,0.0000,5.5200,-0.0226
34.5900,0.3398,0.0074,0.0000,5.5420,-0.0225
34.6000,0.3398,0.0074,0.0000,5.5196,-0.0224
34.6100,0.3398,0.0074,0.0000,5.5417,-0.0223
34.6200,0.3398,0.0074,0.0000,5.5192,-0.0222
34.6300,0.3398,0.0074,0.0000,5.5412,-0.0221
34.6400,0.3398,0.0074,0.0000,5.5188,-0.0220
34.6500,0.3398,0.0074,0.0000,5.5409,-0.0220
34.6600,0.3398,0.0074,0.0000,5.5184,-0.0219
34.6700,0.3398,0.0074,0.0000,5.5405,-0.0218
34.6800,0.3398,0.0074,0.0000,5.5180,-0.0217
34.6900,0.3398,0.0074,0.0000,5.5401,-0.0216
34.7000,0.3398,0.0074,0.0000,5.5176,-0.0216
34.7100,0.3398,0.0074,0.0000,5.5397,-0.0215
34.7200,0.3398,0.0074,0.0000,5.5173,-0.0214
34.7300,0.3398,0.0074,0.0000,5.5393,-0.0213
34.7400,0.3398,0.0074,0.0000,5.5169,-0.0213
34.7500,0.3398,0.0074,0.0000,5.5390,-0.0212
34.7600,0.3398,0.0074,0.0000,5.5165,-0.0211
34.7700,0.3398,0.0074,0.0000,5.5386,-0.0210
34.7800,0.3398,0.0074,0.0000,5.5162,-0.0209
34.7900,0.3398,0.0074,0.0000,5.5382,-0.0209
34.8000,0.3398,0.0074,0.0000,5.5158,-0.0208
34.8100,0.3398,0.0074,0.0000,5.5379,-0.0207
34.8200,0.3398,0.0074,0.0000,5.5154,-0.0206
34.8300,0.3398,0.0074,0.0000,5.5375,-0.0206
34.8400,0.3398,0.0074,0.0000,5.5150,-0.0205
34.8500,0.3398,0.0074,0.0000,5.5371,-0.0204
34.8600,0.3398,0.0074,0.0000,5.5147,-0.0204
34.8700,0.3398,0.0074,0.0000,5.5368,-0.0203
34.8800,0.3398,0.0074,0.0000,5.5143,-0.0202
34.8900,0.3398,0.0074,0.0000,5.5364,-0.0202
34.9000,0.3398,0.0074,0.0000,5.5139,-0.0201
34.9100,0.3398,0.0074,0.0000,5.5360,-0.0201
34.9200,0.3398,0.0074,0.0000,5.5136,-0.0200
34.9300,0.3398,0.0074,0.0000,5.5357,-0.0200
34.9400,0.3398,0.0074,0.0000,5.5132,-0.0199
34.9500,0.3398,0.0074,0.0000,5.5353,-0.0199
34.9600,0.3398,0.0074,0.0000,5.5128,-0.0198
34.9700,0.3398,0.0074,0.0000,5.5349,-0.0198
34.9800,0.3398,0.0074,0.0000,5.5125,-0.0197
34.9900,0.3398,0.0074,0.0000,5.5346,-0.0197
35.0000,0.3398,0.0074,0.0000,5.5121,-0.0196
35.0100,0.3398,0.0074,0.0000,5.5342,-0.0196
35.0200,0.3398,0.0074,0.0000,5.5117,-0.0195
35.0300,0.3398,0.0074,0.0000,5.5338,-0.0195
35.0400,0.3398,0.0074,0.0000,5.5114,-0.0194
35.0500,0.3398,0.0074,0.0000,5.5335,-0.0194
35.0600,0.3398,0.0074,0.0000,5.5110,-0.0193
35.0700,0.3398,0.0074,0.0000,5.5332,-0.0193
35.0800,0.3398,0.0074,0.0000,5.5105,-0.0193
35.0900,0.3398,0.0074,0.0000,5.5327,-0.0193
35.1000,0.3398,0.0074,0.0000,5.5101,-0.0193
35.1100,0.3398,0.0074,0.0000,5.5323,-0.0193
35.1200,0.3398,0.0074,0.0000,5.5098,-0.0193
35.1300,0.3398,0.0074,0.0000,5.5319,-0.0193
35.1400,0.3398,0.0074,0.0000,5.5094,-0.0193
35.1500,0.3398,0.0074,0.0000,5.5315,-0.0193
35.1600,0.3398,0.0074,0.0000,5.5091,-0.0193
35.1700,0.3398,0.0074,0.0000,5.5312,-0.0194
35.1800,0.3398,0.0074,0.0000,5.5087,-0.0193
35.1900,0.3398,0.0074,0.0000,5.5308,-0.0193
35.2000,0.3398,0.0074,0.0000,5.5083,-0.0193
35.2100,0.3398,0.0074,0.0000,5.5304,-0.0193
35.2200,0.3398,0.0074,0.0000,5.5080,-0.0192
35.2300,0.3398,0.0074,0.0000,5.5301,-0.0192
35.2400,0.3398,0.0074,0.0000,5.5076,-0.0192
35.2500,0.3398,0.0074,0.0000,5.5297,-0.0191
35.2600,0.3398,0.0074,0.0000,5.5072,-0.0191
35.2700,0.3398,0.0074,0.0000,5.5293,-0.0191
35.2800,0.3398,0.0074,0.0000,5.5068,-0.0191
35.2900,0.3398,0.0074,0.0000,5.5289,-0.0190
35.3000,0.3398,0.0074,0.0000,5.5065,-0.0190
35.3100,0.3398,0.0074,0.0000,5.5286,-0.0190
35.3200,0.3398,0.0074,0.0000,5.5061,-0.0190
35.3300,0.3398,0.0074,0.0000,5.5282,-0.0189
35.3400,0.3398,0.0074,0.0000,5.5058,-0.0189
35.3500,0.3398,0.0074,0.0000,5.5279,-0.0189
35.3600,0.3398,0.0074,0.0000,5.5054,-0.0188
35.3700,0.3398,0.0074,0.0000,5.5275,-0.0188
35.3800,0.3398,0.0074,0.0000,5.5050,-0.0188
35.3900,0.3398,0.0074,0.0000,5.5272,-0.0188
35.4000,0.3398,0.0074,0.0000,5.5047,-0.0187
35.4100,0.3398,0.0074,0.0000,5.5268,-0.0187
35.4200,0.3398,0.0074,0.0000,5.5043,-0.0187
35.4300,0.3398,0.0074,0.0000,5.5265,-0.0187
35.4400,0.3398,0.0074,0.0000,5.5040,-0.0186
35.4500,0.3398,0.0074,0.0000,5.5261,-0.0186
35.4600,0.3398,0.0074,0.0000,5.5036,-0.0186
35.4700,0.3398,0.0074,0.0000,5.5257,-0.0186
35.4800,0.3398,0.0074,0.0000,5.5033,-0.0185
35.4900,0.3398,0.0074,0.0000,5.5254,-0.0185
35.5000,0.3398,0.0074,0.0000,5.5029,-0.0185
35.5100,0.3398,0.0074,0.0000,5.5250,-0.0185
35.5200,0.3398,0.0074,0.0000,5.5026,-0.0184
35.5300,0.3398,0.0074,0.0000,5.5247,-0.0184
35.5400,0.3398,0.0074,0.0000,5.5022,-0.0184
35.5500,0.3398,0.0074,0.0000,5.5243,-0.0184
35.5600,0.3398,0.0074,0.0000,5.5019,-0.0183
35.5700,0.3398,0.0074,0.0000,5.5240,-0.0183
35.5800,0.3398,0.0074,0.0000,5.5015,-0.0183
35.5900,0.3398,0.0074,0.0000,5.5236,-0.0183
35.6000,0.3398,0.0074,0.0000,5.5012,-0.0182
35.6100,0.3398,0.0074,0.0000,5.5232,-0.0182
35.6200,0.3398,0.0074,0.0000,5.5008,-0.0182
35.6300,0.3398,0.0074,0.0000,5.5228,-0.0182
35.6400,0.3398,0.0074,0.0000,5.5004,-0.0182
35.6500,0.3398,0.0074,0.0000,5.5225,-0.0182
35.6600,0.3398,0.0074,0.0000,5.5000,-0.0182
35.6700,0.3398,0.0074,0.0000,5.5221,-0.0182
35.6800,0.3398,0.0074,0.0000,5.4997,-0.0182
35.6900,0.3398,0.0074,0.0000,5.5218,-0.0182
35.7000,0.3398,0.0074,0.0000,5.4994,-0.0182
35.7100,0.3398,0.0074,0.0000,5.5214,-0.0182
35.7200,0.3398,0.0074,0.0000,5.4990,-0.0182
35.7300,0.3398,0.0074,0.0000,5.5211,-0.0182
35.7400,0.3398,0.0074,0.0000,5.4986,-0.0182
35.7500,0.3398,0.0074,0.0000,5.5208,-0.0181
35.7600,0.3398,0.0074,0.0000,5.4983,-0.0181
35.7700,0.3398,0.0074,0.0000,5.5204,-0.0181
35.7800,0.3398,0.0074,0.0000,5.4979,-0.0181
35.7900,0.3398,0.0074,0.0000,5.5200,-0.0180
35.8000,0.3398,0.0074,0.0000,5.4976,-0.0180
35.8100,0.3398,0.0074,0.0000,5.5197,-0.0180
35.8200,0.3398,0.0074,0.0000,5.4973,-0.0180
35.8300,0.3398,0.0074,0.0000,5.5194,-0.0179
35.8400,0.3398,0.0074,0.0000,5.4968,-0.0180
35.8500,0.3398,0.0074,0.0000,5.5190,-0.0179
35.8600,0.3398,0.0074,0.0000,5.4964,-0.0179
35.8700,0.3398,0.0074,0.0000,5.5186,-0.0179
35.8800,0.3398,0.0074,0.0000,5.4961,-0.0180
35.8900,0.3398,0.0074,0.0000,5.5182,-0.0180
35.9000,0.3398,0.0074,0.0000,5.4957,-0.0180
35.9100,0.3398,0.0074,0.0000,5.5179,-0.0180
35.9200,0.3398,0.0074,0.0000,5.4954,-0.0181
35.9300,0.3398,0.0074,0.0000,5.5175,-0.0181
35.9400,0.3398,0.0074,0.0000,5.4950,-0.0181
35.9500,0.3398,0.0074,0.0000,5.5171,-0.0181
35.9600,0.3398,0.0074,0.0000,5.4946,-0.0181
35.9700,0.3398,0.0074,0.0000,5.5168,-0.0181
35.9800,0.3398,0.0074,0.0000,5.4943,-0.0181
35.9900,0.3398,0.0074,0.0000,5.5164,-0.0181
36.0000,0.3398,0.0074,0.0000,5.4939,-0.0181
36.0100,0.3398,0.0074,0.0000,5.5161,-0.0181
36.0200,0.3398,0.0074,0.0000,5.4936,-0.0181
36.0300,0.3398,0.0074,0.0000,5.5157,-0.0181
36.0400,0.3398,0.0074,0.0000,5.4932,-0.0181
36.0500,0.3398,0.0074,0.0000,5.5154,-0.0181
36.0600,0.3398,0.0074,0.0000,5.4929,-0.0180
36.0700,0.3398,0.0074,0.0000,5.5150,-0.0180
36.0800,0.3398,0.0074,0.0000,5.4925,-0.0180
36.0900,0.3398,0.0074,0.0000,5.5146,-0.0180
36.1000,0.3398,0.0074,0.0000,5.4921,-0.0180
36.1100,0.3398,0.0074,0.0000,5.5143,-0.0180
36.1200,0.3398,0.0074,0.0000,5.4918,-0.0180
36.1300,0.3398,0.0074,0.0000,5.5139,-0.0180
36.1400,0.3398,0.0074,0.0000,5.4914,-0.0180
36.1500,0.3398,0.0074,0.0000,5.5136,-0.0180
36.1600,0.3398,0.0074,0.0000,5.4911,-0.0180
36.1700,0.3398,0.0074,0.0000,5.5132,-0.0180
36.1800,0.3398,0.0074,0.0000,5.4908,-0.0179
36.1900,0.3398,0.0074,0.0000,5.5129,-0.0179
36.2000,0.3398,0.0074,0.0000,5.4904,-0.0179
36.2100,0.3398,0.0074,0.0000,5.5126,-0.0179
36.2200,0.3398,0.0074,0.0000,5.4901,-0.0179
36.2300,0.3398,0.0074,0.0000,5.5122,-0.0178
36.2400,0.3398,0.0074,0.0000,5.4897,-0.0178
36.2500,0.3398,0.0074,0.0000,5.5119,-0.0178
36.2600,0.3398,0.0074,0.0000,5.4894,-0.0178
36.2700,0.3398,0.0074,0.0000,5.5115,-0.0177
36.2800,0.3398,0.0074,0.0000,5.4890,-0.0177
36.2900,0.3398,0.0074,0.0000,5.5112,-0.0177
36.3000,0.3398,0.0074,0.0000,5.4887,-0.0177
36.3100,0.3398,0.0074,0.0000,5.5109,-0.0177
36.3200,0.3398,0.0074,0.0000,5.4883,-0.0176
36.3300,0.3398,0.0074,0.0000,5.5105,-0.0176
36.3400,0.3398,0.0074,0.0000,5.4880,-0.0176
36.3500,0.3398,0.0074,0.0000,5.5102,-0.0176
36.3600,0.3398,0.0074,0.0000,5.4877,-0.0175
36.3700,0.3398,0.0074,0.0000,5.5099,-0.0175
36.3800,0.3398,0.0074,0.0000,5.4874,-0.0175
36.3900,0.3398,0.0074,0.0000,5.5094,-0.0175
36.4000,0.3398,0.0074,0.0000,5.4871,-0.0174
36.4100,0.3398,0.0074,0.0000,5.5091,-0.0174
36.4200,0.3398,0.0074,0.0000,5.4866,-0.0174
36.4300,0.3398,0.0074,0.0000,5.5088,-0.0174
36.4400,0.3398,0.0074,0.0000,5.4863,-0.0175
36.4500,0.3398,0.0074,0.0000,5.5084,-0.0175
36.4600,0.3398,0.0074,0.0000,5.4859,-0.0175
36.4700,0.3398,0.0074,0.0000,5.5081,-0.0175
36.4800,0.3398,0.0074,0.0000,5.4856,-0.0175
36.4900,0.3398,0.0074,0.0000,5.5077,-0.0175
36.5000,0.3398,0.0074,0.0000,5.4852,-0.0175
36.5100,0.3398,0.0074,0.0000,5.5074,-0.0175
36.5200,0.3398,0.0074,0.0000,5.4849,-0.0175
36.5300,0.3398,0.0074,0.0000,5.5071,-0.0175
36.5400,0.3398,0.0074,0.0000,5.4845,-0.0175
36.5500,0.3398,0.0074,0.0000,5.5067,-0.0175
36.5600,0.3398,0.0074,0.0000,5.4842,-0.0175
36.5700,0.3398,0.0074,0.0000,5.5064,-0.0175
36.5800,0.3398,0.0074,0.0000,5.4839,-0.0175
36.5900,0.3398,0.0074,0.0000,5.5061,-0.0174
36.6000,0.3398,0.0074,0.0000,5.4835,-0.0174
36.6100,0.3398,0.0074,0.0000,5.5057,-0.0174
36.6200,0.3398,0.0074,0.0000,5.4832,-0.0173
36.6300,0.3398,0.0074,0.0000,5.5054,-0.0173
36.6400,0.3398,0.0074,0.0000,5.4829,-0.0173
36.6500,0.3398,0.0074,0.0000,5.5051,-0.0173
36.6600,0.3398,0.0074,0.0000,5.4825,-0.0172
36.6700,0.3398,0.0074,0.0000,5.5047,-0.0172
36.6800,0.3398,0.0074,0.0000,5.4822,-0.0172
36.6900,0.3398,0.0074,0.0000,5.5044,-0.0172
36.7000,0.3398,0.0074,0.0000,5.4819,-0.0172
36.7100,0.3398,0.0074,0.0000,5.5041,-0.0171
36.7200,0.3398,0.0074,0.0000,5.4816,-0.0171
36.7300,0.3398,0.0074,0.0000,5.5038,-0.0171
36.7400,0.3398,0.0074,0.0000,5.4813,-0.0171
36.7500,0.3398,0.0074,0.0000,5.5034,-0.0170
36.7600,0.3398,0.0074,0.0000,5.4809,-0.0170
36.7700,0.3398,0.0074,0.0000,5.5031,-0.0170
36.7800,0.3398,0.0074,0.0000,5.4806,-0.0170
36.7900,0.3398,0.0074,0.0000,5.5028,-0.0169
36.8000,0.3398,0.0074,0.0000,5.4803,-0.0169
36.8100,0.3398,0.0074,0.0000,5.5024,-0.0169
36.8200,0.3398,0.0074,0.0000,5.4799,-0.0169
36.8300,0.3398,0.0074,0.0000,5.5021,-0.0169
36.8400,0.3398,0.0074,0.0000,5.4796,-0.0169
36.8500,0.3398,0.0074,0.0000,5.5018,-0.0168
36.8600,0.3398,0.0074,0.0000,5.4793,-0.0168
36.8700,0.3398,0.0074,0.0000,5.5015,-0.0168
36.8800,0.3398,0.0074,0.0000,5.4789,-0.0168
36.8900,0.3398,0.0074,0.0000,5.5011,-0.0168
36.9000,0.3398,0.0074,0.0000,5.4786,-0.0167
36.9100,0.3398,0.0074,0.0000,5.5008,-0.0167
36.9200,0.3398,0.0074,0.0000,5.4783,-0.0167
36.9300,0.3398,0.0074,0.0000,5.5005,-0.0167
36.9400,0.3398,0.0074,0.0000,5.4780,-0.0167
36.9500,0.3398,0.0074,0.0000,5.5002,-0.0167
36.9600,0.3398,0.0074,0.0000,5.4777,-0.0166
36.9700,0.3398,0.0074,0.0000,5.4999,-0.0166
36.9800,0.3398,0.0074,0.0000,5.4774,-0.0166
36.9900,0.3398,0.0074,0.0000,5.4995,-0.0166
37.0000,0.3398,0.0074,0.0000,5.4770,-0.0166
37.0100,0.3398,0.0074,0.0000,5.4992,-0.0166
37.0200,0.3398,0.0074,0.0000,5.4767,-0.0165
37.0300,0.3398,0.0074,0.0000,5.4989,-0.0165
37.0400,0.3398,0.0074,0.0000,5.4764,-0.0165
37.0500,0.3398,0.0074,0.0000,5.4986,-0.0165
37.0600,0.3398,0.0074,0.0000,5.4761,-0.0165
37.0700,0.3398,0.0074,0.0000,5.4983,-0.0165
37.0800,0.3398,0.0074,0.0000,5.4758,-0.0164
37.0900,0.3398,0.0074,0.0000,5.4980,-0.0164
37.1000,0.3398,0.0074,0.0000,5.4755,-0.0164
37.1100,0.3398,0.0074,0.0000,5.4977,-0.0164
37.1200,0.3398,0.0074,0.0000,5.4751,-0.0163
37.1300,0.3398,0.0074,0.0000,5.4973,-0.0163
37.1400,0.3398,0.0074,0.0000,5.4748,-0.0163
37.1500,0.3398,0.0074,0.0000,5.4970,-0.0163
37.1600,0.3398,0.0074,0.0000,5.4745,-0.0162
37.1700,0.3398,0.0074,0.0000,5.4967,-0.0162
37.1800,0.3398,0.0074,0.0000,5.4742,-0.0162
37.1900,0.3398,0.0074,0.0000,5.4964,-0.0162
37.2000,0.3398,0.0074,0.0000,5.4739,-0.0162
37.2100,0.3398,0.0074,0.0000,5.4961,-0.0161
37.2200,0.3398,0.0074,0.0000,5.4736,-0.0161
37.2300,0.3398,0.0074,0.0000,5.4958,-0.0161
37.2400,0.3398,0.0074,0.0000,5.4733,-0.0161
37.2500,0.3398,0.0074,0.0000,5.4955,-0.0160
37.2600,0.3398,0.0074,0.0000,5.4730,-0.0160
37.2700,0.3398,0.0074,0.0000,5.4952,-0.0160
37.2800,0.3398,0.0074,0.0000,5.4727,-0.0160
37.2900,0.3398,0.0074,0.0000,5.4949,-0.0160
37.3000,0.3398,0.0074,0.0000,5.4724,-0.0159
37.3100,0.3398,0.0074,0.0000,5.4946,-0.0159
37.3200,0.3398,0.0074,0.0000,5.4721,-0.0159
37.3300,0.3398,0.0074,0.0000,5.4943,-0.0159
37.3400,0.3398,0.0074,0.0000,5.4718,-0.0159
37.3500,0.3398,0.0074,0.0000,5.4940,-0.0158
37.3600,0.3398,0.0074,0.0000,5.4715,-0.0158
37.3700,0.3398,0.0074,0.0000,5.4937,-0.0158
37.3800,0.3398,0.0074,0.0000,5.4711,-0.0157
37.3900,0.3398,0.0074,0.0000,5.4934,-0.0157
37.4000,0.3398,0.0074,0.0000,5.4709,-0.0157
37.4100,0.3398,0.0074,0.0000,5.4931,-0.0157
37.4200,0.3398,0.0074,0.0000,5.4706,-0.0157
37.4300,0.3398,0.0074,0.0000,5.4928,-0.0156
37.4400,0.3398,0.0074,0.0000,5.4703,-0.0156
37.4500,0.3398,0.0074,0.0000,5.4925,-0.0156
37.4600,0.3398,0.0074,0.0000,5.4700,-0.0156
37.4700,0.3398,0.0074,0.0000,5.4922,-0.0156
37.4800,0.3398,0.0074,0.0000,5.4697,-0.0155
37.4900,0.3398,0.0074,0.0000,5.4919,-0.0155
37.5000,0.3398,0.0074,0.0000,5.4694,-0.0155
37.5100,0.3398,0.0074,0.0000,5.4916,-0.0155
37.5200,0.3398,0.0074,0.0000,5.4691,-0.0155
37.5300,0.3398,0.0074,0.0000,5.4913,-0.0154
37.5400,0.3398,0.0074,0.0000,5.4688,-0.0154
37.5500,0.3398,0.0074,0.0000,5.4910,-0.0154
37.5600,0.3398,0.0074,0.0000,5.4685,-0.0154
37.5700,0.3398,0.0074,0.0000,5.4907,-0.0154
37.5800,0.3398,0.0074,0.0000,5.4682,-0.0153
37.5900,0.3398,0.0074,0.0000,5.4904,-0.0153
37.6000,0.3398,0.0074,0.0000,5.4679,-0.0153
37.6100,0.3398,0.0074,0.0000,5.4901,-0.0153
37.6200,0.3398,0.0074,0.0000,5.4676,-0.0152
37.6300,0.3398,0.0074,0.0000,5.4898,-0.0152
37.6400,0.3398,0.0074,0.0000,5.4673,-0.0152
37.6500,0.3398,0.0074,0.0000,5.4896,-0.0152
37.6600,0.3398,0.0074,0.0000,5.4670,-0.0151
37.6700,0.3398,0.0074,0.0000,5.4893,-0.0151
37.6800,0.3398,0.0074,0.0000,5.4667,-0.0151
37.6900,0.3398,0.0074,0.0000,5.4890,-0.0151
37.7000,0.3398,0.0074,0.0000,5.4665,-0.0150
37.7100,0.3398,0.0074,0.0000,5.4887,-0.0150
37.7200,0.3398,0.0074,0.0000,5.4662,-0.0150
37.7300,0.3398,0.0074,0.0000,5.4884,-0.0150
37.7400,0.3398,0.0074,0.0000,5.4659,-0.0150
37.7500,0.3398,0.0074,0.0000,5.4881,-0.0150
37.7600,0.3398,0.0074,0.0000,5.4656,-0.0149
37.7700,0.3398,0.0074,0.0000,5.4878,-0.0149
37.7800,0.3398,0.0074,0.0000,5.4653,-0.0149
37.7900,0.3398,0.0074,0.0000,5.4875,-0.0149
37.8000,0.3398,0.0074,0.0000,5.4650,-0.0149
37.8100,0.3398,0.0074,0.0000,5.4872,-0.0149
37.8200,0.3398,0.0074,0.0000,5.4647,-0.0149
37.8300,0.3398,0.0074,0.0000,5.4870,-0.0148
37.8400,0.3398,0.0074,0.0000,5.4645,-0.0148
37.8500,0.3398,0.0074,0.0000,5.4867,-0.0148
37.8600,0.3398,0.0074,0.0000,5.4642,-0.0148
37.8700,0.3398,0.0074,0.0000,5.4864,-0.0147
37.8800,0.3398,0.0074,0.0000,5.4639,-0.0147
37.8900,0.3398,0.0074,0.0000,5.4862,-0.0147
37.9000,0.3398,0.0074,0.0000,5.4636,-0.0147
37.9100,0.3398,0.0074,0.0000,5.4859,-0.0146
37.9200,0.3398,0.0074,0.0000,5.4633,-0.0146
37.9300,0.3398,0.0074,0.0000,5.4856,-0.0146
37.9400,0.3398,0.0074,0.0000,5.4631,-0.0146
37.9500,0.3398,0.0074,0.0000,5.4853,-0.0145
37.9600,0.3398,0.0074,0.0000,5.4628,-0.0145
37.9700,0.3398,0.0074,0.0000,5.4851,-0.0145
37.9800,0.3398,0.0074,0.0000,5.4625,-0.0144
37.9900,0.3398,0.0074,0.0000,5.4848,-0.0144
38.0000,0.3398,0.0074,0.0000,5.4623,-0.0144
38.0100,0.3398,0.0074,0.0000,5.4845,-0.0144
38.0200,0.3398,0.0074,0.0000,5.4620,-0.0143
38.0300,0.3398,0.0074,0.0000,5.4843,-0.0143
38.0400,0.3398,0.0074,0.0000,5.4617,-0.0143
38.0500,0.3398,0.0074,0.0000,5.4840,-0.0143
38.0600,0.3398,0.0074,0.0000,5.4615,-0.0142
38.0700,0.3398,0.0074,0.0000,5.4837,-0.0142
38.0800,0.3398,0.0074,0.0000,5.4612,-0.0142
38.0900,0.3398,0.0074,0.0000,5.4835,-0.0141
38.1000,0.3398,0.0074,0.0000,5.4609,-0.0141
38.1100,0.3398,0.0074,0.0000,5.4832,-0.0141
38.1200,0.3398,0.0074,0.0000,5.4607,-0.0141
38.1300,0.3398,0.0074,0.0000,5.4829,-0.0140
38.1400,0.3398,0.0074,0.0000,5.4604,-0.0140
38.1500,0.3398,0.0074,0.0000,5.4827,-0.0140
38.1600,0.3398,0.0074,0.0000,5.4601,-0.0140
38.1700,0.3398,0.0074,0.0000,5.4824,-0.0139
38.1800,0.3398,0.0074,0.0000,5.4598,-0.0139
38.1900,0.3398,0.0074,0.0000,5.4821,-0.0139
38.2000,0.3398,0.0074,0.0000,5.4596,-0.0139
38.2100,0.3398,0.0074,0.0000,5.4819,-0.0138
38.2200,0.3398,0.0074,0.0000,5.4594,-0.0138
38.2300,0.3398,0.0074,0.0000,5.4816,-0.0138
38.2400,0.3398,0.0074,0.0000,5.4591,-0.0138
38.2500,0.3398,0.0074,0.0000,5.4814,-0.0138
38.2600,0.3398,0.0074,0.0000,5.4588,-0.0137
38.2700,0.3398,0.0074,0.0000,5.4811,-0.0137
38.2800,0.3398,0.0074,0.0000,5.4586,-0.0137
38.2900,0.3398,0.0074,0.0000,5.4808,-0.0136
38.3000,0.3398,0.0074,0.0000,5.4583,-0.0136
38.3100,0.3398,0.0074,0.0000,5.4806,-0.0136
38.3200,0.3398,0.0074,0.0000,5.4581,-0.0136
38.3300,0.3398,0.0074,0.0000,5.4803,-0.0135
38.3400,0.3398,0.0074,0.0000,5.4578,-0.0135
38.3500,0.3398,0.0074,0.0000,5.4801,-0.0135
38.3600,0.3398,0.0074,0.0000,5.4576,-0.0134
38.3700,0.3398,0.0074,0.0000,5.4798,-0.0134
38.3800,0.3398,0.0074,0.0000,5.4573,-0.0134
38.3900,0.3398,0.0074,0.0000,5.4795,-0.0134
38.4000,0.3398,0.0074,0.0000,5.4570,-0.0134
38.4100,0.3398,0.0074,0.0000,5.4793,-0.0134
38.4200,0.3398,0.0074,0.0000,5.4568,-0.0134
38.4300,0.3398,0.0074,0.0000,5.4790,-0.0134
38.4400,0.3398,0.0074,0.0000,5.4565,-0.0134
38.4500,0.3398,0.0074,0.0000,5.4788,-0.0133
38.4600,0.3398,0.0074,0.0000,5.4562,-0.0134
38.4700,0.3398,0.0074,0.0000,5.4785,-0.0133
38.4800,0.3398,0.0074,0.0000,5.4560,-0.0133
38.4900,0.3398,0.0074,0.0000,5.4783,-0.0133
38.5000,0.3398,0.0074,0.0000,5.4557,-0.0133
38.5100,0.3398,0.0074,0.0000,5.4780,-0.0133
38.5200,0.3398,0.0074,0.0000,5.4554,-0.0133
38.5300,0.3398,0.0074,0.0000,5.4777,-0.0133
38.5400,0.3398,0.0074,0.0000,5.4552,-0.0133
38.5500,0.3398,0.0074,0.0000,5.4775,-0.0133
38.5600,0.3398,0.0074,0.0000,5.4549,-0.0133
38.5700,0.3398,0.0074,0.0000,5.4772,-0.0133
38.5800,0.3398,0.0074,0.0000,5.4547,-0.0132
38.5900,0.3398,0.0074,0.0000,5.4770,-0.0132
38.6000,0.3398,0.0074,0.0000,5.4544,-0.0132
38.6100,0.3398,0.0074,0.0000,5.4767,-0.0132
38.6200,0.3398,0.0074,0.0000,5.4542,-0.0132
38.6300,0.3398,0.0074,0.0000,5.4765,-0.0132
38.6400,0.3398,0.0074,0.0000,5.4540,-0.0131
38.6500,0.3398,0.0074,0.0000,5.4762,-0.0131
38.6600,0.3398,0.0074,0.0000,5.4537,-0.0131
38.6700,0.3398,0.0074,0.0000,5.4760,-0.0131
38.6800,0.3398,0.0074,0.0000,5.4535,-0.0130
38.6900,0.3398,0.0074,0.0000,5.4757,-0.0130
