time_s,throttle,throttle_delta,brake,speed,accel_x
470.6000,0.5465,0.0000,0.0000,16.6965,-0.0769
482.0300,0.6568,-0.0314,0.0000,27.7247,-0.0309
482.0400,0.6568,-0.0314,0.0000,27.7249,-0.0240
482.0500,0.6568,-0.0314,0.0000,27.7249,0.0019
482.0600,0.6568,-0.0314,0.0000,27.7246,0.0322
482.0700,0.6568,-0.0314,0.0000,27.7240,0.0607
482.0800,0.6568,-0.0314,0.0000,27.7231,0.0875
482.0900,0.6568,-0.0314,0.0000,27.7220,0.1135
482.1000,0.6568,-0.0314,0.0000,27.7206,0.1368
482.1100,0.6568,-0.0314,0.0000,27.7190,0.1589
482.1200,0.6568,-0.0314,0.0000,27.7172,0.1799
482.1300,0.6568,-0.0314,0.0000,27.7152,0.1995
482.1400,0.6568,-0.0314,0.0000,27.7130,0.2182
482.1500,0.6568,-0.0314,0.0000,27.7107,0.2354
482.1600,0.6568,-0.0314,0.0000,27.7082,0.2518
482.1700,0.6568,-0.0314,0.0000,27.7055,0.2670
482.1800,0.6568,-0.0314,0.0000,27.7027,0.2815
482.1900,0.6568,-0.0314,0.0000,27.6997,0.2949
482.2000,0.6568,-0.0314,0.0000,27.6967,0.3077
482.2100,0.6568,-0.0314,0.0000,27.6935,0.3197
482.2200,0.6568,-0.0314,0.0000,27.6902,0.3281
482.2300,0.6568,-0.0314,0.0000,27.6868,0.3384
482.2400,0.6568,-0.0314,0.0000,27.6833,0.3477
482.2500,0.6568,-0.0314,0.0000,27.6797,0.3567
482.2600,0.6568,-0.0314,0.0000,27.6761,0.3651
482.2700,0.6568,-0.0314,0.0000,27.6724,0.3729
482.2800,0.6568,-0.0314,0.0000,27.6686,0.3807
482.2900,0.6568,-0.0314,0.0000,27.6647,0.3874
482.3000,0.6568,-0.0314,0.0000,27.6607,0.3942
482.3100,0.6568,-0.0314,0.0000,27.6567,0.4005
482.3200,0.6568,-0.0314,0.0000,27.6527,0.4059
482.3300,0.6568,-0.0314,0.0000,27.6486,0.4103
482.3400,0.6568,-0.0314,0.0000,27.6444,0.4158
482.3500,0.6568,-0.0314,0.0000,27.6402,0.4206
482.3600,0.6568,-0.0314,0.0000,27.6360,0.4253
482.3700,0.6568,-0.0314,0.0000,27.6317,0.4297
482.3800,0.6568,-0.0314,0.0000,27.6273,0.4333
482.3900,0.6568,-0.0314,0.0000,27.6230,0.4366
482.4000,0.6568,-0.0314,0.0000,27.6186,0.4406
482.4100,0.6568,-0.0314,0.0000,27.6141,0.4433
482.4200,0.6568,-0.0314,0.0000,27.6097,0.4461
482.4300,0.6568,-0.0314,0.0000,27.6052,0.4486
482.4400,0.6568,-0.0314,0.0000,27.6007,0.4513
482.4500,0.6568,-0.0314,0.0000,27.5961,0.4534
482.4600,0.6568,-0.0314,0.0000,27.5916,0.4553
482.4700,0.6568,-0.0314,0.0000,27.5870,0.4568
482.4800,0.6568,-0.0314,0.0000,27.5824,0.4589
482.4900,0.6568,-0.0314,0.0000,27.5778,0.4604
482.5000,0.6568,-0.0314,0.0000,27.5732,0.4614
482.5100,0.6568,-0.0314,0.0000,27.5686,0.4633
482.5200,0.6568,-0.0314,0.0000,27.5639,0.4639
482.5300,0.6568,-0.0314,0.0000,27.5593,0.4650
482.5400,0.6568,-0.0314,0.0000,27.5546,0.4663
482.5500,0.6568,-0.0314,0.0000,27.5500,0.4663
482.5600,0.6568,-0.0314,0.0000,27.5453,0.4675
482.5700,0.6568,-0.0314,0.0000,27.5406,0.4686
482.5800,0.6568,-0.0314,0.0000,27.5360,0.4616
482.5900,0.6568,-0.0314,0.0000,27.5314,0.4549
482.6000,0.6568,-0.0314,0.0000,27.5269,0.4541
482.6100,0.6568,-0.0314,0.0000,27.5224,0.4517
482.6200,0.6568,-0.0314,0.0000,27.5179,0.4517
482.6300,0.6568,-0.0314,0.0000,27.5133,0.4517
482.6400,0.6568,-0.0314,0.0000,27.5088,0.4517
482.6500,0.6568,-0.0314,0.0000,27.5043,0.4517
482.6600,0.6568,-0.0314,0.0000,27.4998,0.4517
482.6700,0.6568,-0.0314,0.0000,27.4953,0.4517
482.6800,0.6568,-0.0314,0.0000,27.4908,0.4517
482.6900,0.6568,-0.0314,0.0000,27.4863,0.4469
482.7000,0.6568,-0.0314,0.0000,27.4818,0.4475
482.7100,0.6568,-0.0314,0.0000,27.4773,0.4492
482.7200,0.6568,-0.0314,0.0000,27.4728,0.4515
482.7300,0.6568,-0.0314,0.0000,27.4683,0.4517
482.7400,0.6568,-0.0314,0.0000,27.4638,0.4517
482.7500,0.6568,-0.0314,0.0000,27.4592,0.4541
482.7600,0.6568,-0.0314,0.0000,27.4547,0.4539
482.7700,0.6568,-0.0314,0.0000,27.4501,0.4541
482.7800,0.6568,-0.0314,0.0000,27.4456,0.4541
482.7900,0.6568,-0.0314,0.0000,27.4411,0.4511
482.8000,0.6568,-0.0314,0.0000,27.4366,0.4494
482.8100,0.6568,-0.0314,0.0000,27.4321,0.4492
482.8200,0.6568,-0.0314,0.0000,27.4276,0.4492
482.8300,0.6568,-0.0314,0.0000,27.4232,0.4436
482.8400,0.6568,-0.0314,0.0000,27.4189,0.4263
482.8500,0.6568,-0.0314,0.0000,27.4147,0.4206
482.8600,0.6568,-0.0314,0.0000,27.4105,0.4166
482.8700,0.6568,-0.0314,0.0000,27.4064,0.4133
482.8800,0.6568,-0.0314,0.0000,27.4023,0.4108
482.8900,0.6568,-0.0314,0.0000,27.3982,0.4095
482.9000,0.6568,-0.0314,0.0000,27.3941,0.4076
482.9100,0.6568,-0.0314,0.0000,27.3901,0.4078
482.9200,0.6568,-0.0314,0.0000,27.3860,0.4061
482.9300,0.6568,-0.0314,0.0000,27.3819,0.4051
482.9400,0.6568,-0.0314,0.0000,27.3779,0.4005
482.9500,0.6568,-0.0314,0.0000,27.3739,0.3988
482.9600,0.6568,-0.0314,0.0000,27.3699,0.4021
482.9700,0.6568,-0.0314,0.0000,27.3659,0.4051
482.9800,0.6568,-0.0314,0.0000,27.3618,0.4063
482.9900,0.6568,-0.0314,0.0000,27.3577,0.4076
483.0000,0.6568,-0.0314,0.0000,27.3537,0.4078
483.0100,0.6568,-0.0314,0.0000,27.3496,0.4076
483.0200,0.6568,-0.0314,0.0000,27.3455,0.4078
483.0300,0.6568,-0.0314,0.0000,27.3414,0.4078
483.0400,0.6568,-0.0314,0.0000,27.3374,0.4076
483.0500,0.6568,-0.0314,0.0000,27.3333,0.4063
483.0600,0.6568,-0.0314,0.0000,27.3292,0.4053
483.0700,0.6568,-0.0314,0.0000,27.3252,0.4053
483.0800,0.6568,-0.0314,0.0000,27.3211,0.4042
483.0900,0.6568,-0.0314,0.0000,27.3173,0.3878
483.1000,0.6568,-0.0314,0.0000,27.3135,0.3811
483.1100,0.6568,-0.0314,0.0000,27.3097,0.3759
483.1200,0.6568,-0.0314,0.0000,27.3060,0.3719
483.1300,0.6568,-0.0314,0.0000,27.3023,0.3683
483.1400,0.6568,-0.0314,0.0000,27.2986,0.3658
483.1500,0.6568,-0.0314,0.0000,27.2950,0.3637
483.1600,0.6568,-0.0314,0.0000,27.2914,0.3616
483.1700,0.6568,-0.0314,0.0000,27.2878,0.3613
483.1800,0.6568,-0.0314,0.0000,27.2842,0.3595
483.1900,0.6568,-0.0314,0.0000,27.2806,0.3590
483.2000,0.6568,-0.0314,0.0000,27.2770,0.3542
483.2100,0.6568,-0.0314,0.0000,27.2735,0.3574
483.2200,0.6568,-0.0314,0.0000,27.2699,0.3592
483.2300,0.6568,-0.0314,0.0000,27.2663,0.3614
483.2400,0.6568,-0.0314,0.0000,27.2626,0.3613
483.2500,0.6568,-0.0314,0.0000,27.2590,0.3613
483.2600,0.6568,-0.0314,0.0000,27.2554,0.3614
483.2700,0.6568,-0.0314,0.0000,27.2518,0.3613
483.2800,0.6568,-0.0314,0.0000,27.2482,0.3614
483.2900,0.6568,-0.0314,0.0000,27.2446,0.3593
483.3000,0.6568,-0.0314,0.0000,27.2410,0.3588
483.3100,0.6568,-0.0314,0.0000,27.2374,0.3588
483.3200,0.6568,-0.0314,0.0000,27.2339,0.3571
483.3300,0.6568,-0.0314,0.0000,27.2303,0.3565
483.3400,0.6568,-0.0314,0.0000,27.2268,0.3519
483.3500,0.6568,-0.0314,0.0000,27.2234,0.3410
483.3600,0.6568,-0.0314,0.0000,27.2200,0.3344
483.3700,0.6568,-0.0314,0.0000,27.2167,0.3286
483.3800,0.6568,-0.0314,0.0000,27.2135,0.3244
483.3900,0.6568,-0.0314,0.0000,27.2103,0.3212
483.4000,0.6568,-0.0314,0.0000,27.2071,0.3185
483.4100,0.6568,-0.0314,0.0000,27.2039,0.3166
483.4200,0.6568,-0.0314,0.0000,27.2008,0.3149
483.4300,0.6568,-0.0314,0.0000,27.1976,0.3128
483.4400,0.6568,-0.0314,0.0000,27.1945,0.3124
483.4500,0.6568,-0.0314,0.0000,27.1914,0.3094
483.4600,0.6568,-0.0314,0.0000,27.1883,0.3120
483.4700,0.6568,-0.0314,0.0000,27.1852,0.3145
483.4800,0.6568,-0.0314,0.0000,27.1820,0.3149
483.4900,0.6568,-0.0314,0.0000,27.1789,0.3151
483.5000,0.6568,-0.0314,0.0000,27.1757,0.3153
483.5100,0.6568,-0.0314,0.0000,27.1726,0.3149
483.5200,0.6568,-0.0314,0.0000,27.1694,0.3149
483.5300,0.6568,-0.0314,0.0000,27.1663,0.3149
483.5400,0.6568,-0.0314,0.0000,27.1631,0.3139
483.5500,0.6568,-0.0314,0.0000,27.1600,0.3126
483.5600,0.6568,-0.0314,0.0000,27.1569,0.3122
483.5700,0.6568,-0.0314,0.0000,27.1538,0.3105
483.5800,0.6568,-0.0314,0.0000,27.1507,0.3101
483.5900,0.6568,-0.0314,0.0000,27.1476,0.3096
483.6000,0.6568,-0.0314,0.0000,27.1445,0.3044
483.6100,0.6568,-0.0314,0.0000,27.1415,0.3000
483.6200,0.6568,-0.0314,0.0000,27.1386,0.2966
483.6300,0.6568,-0.0314,0.0000,27.1356,0.2937
483.6400,0.6568,-0.0314,0.0000,27.1327,0.2911
483.6500,0.6568,-0.0314,0.0000,27.1298,0.2890
483.6600,0.6568,-0.0314,0.0000,27.1269,0.2878
483.6700,0.6568,-0.0314,0.0000,27.1241,0.2859
483.6800,0.6568,-0.0314,0.0000,27.1212,0.2855
483.6900,0.6568,-0.0314,0.0000,27.1184,0.2836
483.7000,0.6568,-0.0314,0.0000,27.1156,0.2832
483.7100,0.6568,-0.0314,0.0000,27.1127,0.2827
483.7200,0.6568,-0.0314,0.0000,27.1099,0.2832
483.7300,0.6568,-0.0314,0.0000,27.1071,0.2842
483.7400,0.6568,-0.0314,0.0000,27.1042,0.2834
483.7500,0.6568,-0.0314,0.0000,27.1014,0.2834
483.7600,0.6568,-0.0314,0.0000,27.0986,0.2832
483.7700,0.6568,-0.0314,0.0000,27.0957,0.2832
483.7800,0.6568,-0.0314,0.0000,27.0929,0.2829
483.7900,0.6568,-0.0314,0.0000,27.0901,0.2804
483.8000,0.6568,-0.0314,0.0000,27.0873,0.2783
483.8100,0.6568,-0.0314,0.0000,27.0845,0.2783
483.8200,0.6568,-0.0314,0.0000,27.0817,0.2779
483.8300,0.6568,-0.0314,0.0000,27.0790,0.2760
483.8400,0.6568,-0.0314,0.0000,27.0762,0.2760
483.8500,0.6568,-0.0314,0.0000,27.0735,0.2758
483.8600,0.6568,-0.0314,0.0000,27.0707,0.2745
483.8700,0.6568,-0.0314,0.0000,27.0680,0.2733
483.8800,0.6568,-0.0314,0.0000,27.0653,0.2735
483.8900,0.6568,-0.0314,0.0000,27.0625,0.2731
483.9000,0.6568,-0.0314,0.0000,27.0598,0.2716
483.9100,0.6568,-0.0314,0.0000,27.0571,0.2708
483.9200,0.6568,-0.0314,0.0000,27.0544,0.2710
483.9300,0.6568,-0.0314,0.0000,27.0517,0.2705
483.9400,0.6568,-0.0314,0.0000,27.0490,0.2693
483.9500,0.6568,-0.0314,0.0000,27.0463,0.2686
483.9600,0.6568,-0.0314,0.0000,27.0436,0.2686
483.9700,0.6568,-0.0314,0.0000,27.0409,0.2686
483.9800,0.6568,-0.0314,0.0000,27.0383,0.2682
483.9900,0.6568,-0.0314,0.0000,27.0356,0.2663
484.0000,0.6568,-0.0314,0.0000,27.0329,0.2661
484.0100,0.6568,-0.0314,0.0000,27.0303,0.2663
484.0200,0.6568,-0.0314,0.0000,27.0276,0.2661
484.0300,0.6568,-0.0314,0.0000,27.0250,0.2649
484.0400,0.6568,-0.0314,0.0000,27.0223,0.2642
484.0500,0.6568,-0.0314,0.0000,27.0197,0.2636
484.0600,0.6568,-0.0314,0.0000,27.0170,0.2636
484.0700,0.6568,-0.0314,0.0000,27.0144,0.2638
484.0800,0.6568,-0.0314,0.0000,27.0118,0.2628
484.0900,0.6568,-0.0314,0.0000,27.0092,0.2619
484.1000,0.6568,-0.0314,0.0000,27.0065,0.2611
484.1100,0.6568,-0.0314,0.0000,27.0039,0.2613
484.1200,0.6568,-0.0314,0.0000,27.0013,0.2611
484.1300,0.6568,-0.0314,0.0000,26.9987,0.2611
484.1400,0.6568,-0.0314,0.0000,26.9961,0.2598
484.1500,0.6568,-0.0314,0.0000,26.9935,0.2586
484.1600,0.6568,-0.0314,0.0000,26.9909,0.2588
484.1700,0.6568,-0.0314,0.0000,26.9884,0.2588
484.1800,0.6568,-0.0314,0.0000,26.9858,0.2588
484.1900,0.6568,-0.0314,0.0000,26.9832,0.2577
484.2000,0.6568,-0.0314,0.0000,26.9806,0.2571
484.2100,0.6568,-0.0314,0.0000,26.9781,0.2563
484.2200,0.6568,-0.0314,0.0000,26.9755,0.2563
484.2300,0.6568,-0.0314,0.0000,26.9729,0.2563
484.2400,0.6568,-0.0314,0.0000,26.9704,0.2563
484.2500,0.6568,-0.0314,0.0000,26.9678,0.2556
484.2600,0.6568,-0.0314,0.0000,26.9653,0.2542
484.2700,0.6568,-0.0314,0.0000,26.9627,0.2539
484.2800,0.6568,-0.0314,0.0000,26.9602,0.2539
484.2900,0.6568,-0.0314,0.0000,26.9576,0.2541
484.3000,0.6568,-0.0314,0.0000,26.9551,0.2533
484.3100,0.6568,-0.0314,0.0000,26.9526,0.2516
484.3200,0.6568,-0.0314,0.0000,26.9501,0.2514
484.3300,0.6568,-0.0314,0.0000,26.9476,0.2514
484.3400,0.6568,-0.0314,0.0000,26.9451,0.2516
484.3500,0.6568,-0.0314,0.0000,26.9425,0.2514
484.3600,0.6568,-0.0314,0.0000,26.9400,0.2516
484.3700,0.6568,-0.0314,0.0000,26.9375,0.2499
484.3800,0.6568,-0.0314,0.0000,26.9350,0.2491
484.3900,0.6568,-0.0314,0.0000,26.9325,0.2489
484.4000,0.6568,-0.0314,0.0000,26.9301,0.2491
484.4100,0.6568,-0.0314,0.0000,26.9276,0.2491
484.4200,0.6568,-0.0314,0.0000,26.9251,0.2480
484.4300,0.6568,-0.0314,0.0000,26.9226,0.2466
484.4400,0.6568,-0.0314,0.0000,26.9202,0.2466
484.4500,0.6568,-0.0314,0.0000,26.9177,0.2466
484.4600,0.6568,-0.0314,0.0000,26.9152,0.2464
484.4700,0.6568,-0.0314,0.0000,26.9128,0.2466
484.4800,0.6568,-0.0314,0.0000,26.9103,0.2447
484.4900,0.6568,-0.0314,0.0000,26.9079,0.2441
484.5000,0.6568,-0.0314,0.0000,26.9054,0.2441
484.5100,0.6568,-0.0314,0.0000,26.9030,0.2441
484.5200,0.6568,-0.0314,0.0000,26.9005,0.2441
484.5300,0.6568,-0.0314,0.0000,26.8981,0.2438
484.5400,0.6568,-0.0314,0.0000,26.8957,0.2432
484.5500,0.6568,-0.0314,0.0000,26.8933,0.2419
484.5600,0.6568,-0.0314,0.0000,26.8908,0.2417
484.5700,0.6568,-0.0314,0.0000,26.8884,0.2417
484.5800,0.6568,-0.0314,0.0000,26.8860,0.2417
484.5900,0.6568,-0.0314,0.0000,26.8836,0.2417
484.6000,0.6568,-0.0314,0.0000,26.8812,0.2407
484.6100,0.6568,-0.0314,0.0000,26.8788,0.2394
484.6200,0.6568,-0.0314,0.0000,26.8764,0.2392
484.6300,0.6568,-0.0314,0.0000,26.8740,0.2394
484.6400,0.6568,-0.0314,0.0000,26.8716,0.2392
484.6500,0.6568,-0.0314,0.0000,26.8692,0.2390
484.6600,0.6568,-0.0314,0.0000,26.8668,0.2377
484.6700,0.6568,-0.0314,0.0000,26.8645,0.2367
484.6800,0.6568,-0.0314,0.0000,26.8621,0.2369
484.6900,0.6568,-0.0314,0.0000,26.8597,0.2367
484.7000,0.6568,-0.0314,0.0000,26.8574,0.2369
484.7100,0.6568,-0.0314,0.0000,26.8550,0.2365
484.7200,0.6568,-0.0314,0.0000,26.8527,0.2350
484.7300,0.6568,-0.0314,0.0000,26.8503,0.2342
484.7400,0.6568,-0.0314,0.0000,26.8480,0.2344
484.7500,0.6568,-0.0314,0.0000,26.8456,0.2344
484.7600,0.6568,-0.0314,0.0000,26.8433,0.2344
484.7700,0.6568,-0.0314,0.0000,26.8409,0.2344
484.7800,0.6568,-0.0314,0.0000,26.8386,0.2342
484.7900,0.6568,-0.0314,0.0000,26.8363,0.2337
484.8000,0.6568,-0.0314,0.0000,26.8339,0.2333
484.8100,0.6568,-0.0314,0.0000,26.8316,0.2321
484.8200,0.6568,-0.0314,0.0000,26.8293,0.2319
484.8300,0.6568,-0.0314,0.0000,26.8270,0.2319
484.8400,0.6568,-0.0314,0.0000,26.8246,0.2319
484.8500,0.6568,-0.0314,0.0000,26.8223,0.2319
484.8600,0.6568,-0.0314,0.0000,26.8200,0.2316
484.8700,0.6568,-0.0314,0.0000,26.8177,0.2304
484.8800,0.6568,-0.0314,0.0000,26.8154,0.2295
484.8900,0.6568,-0.0314,0.0000,26.8131,0.2295
484.9000,0.6568,-0.0314,0.0000,26.8108,0.2295
484.9100,0.6568,-0.0314,0.0000,26.8085,0.2293
484.9200,0.6568,-0.0314,0.0000,26.8062,0.2281
484.9300,0.6568,-0.0314,0.0000,26.8040,0.2274
484.9400,0.6568,-0.0314,0.0000,26.8017,0.2270
484.9500,0.6568,-0.0314,0.0000,26.7994,0.2270
484.9600,0.6568,-0.0314,0.0000,26.7972,0.2272
484.9700,0.6568,-0.0314,0.0000,26.7949,0.2270
484.9800,0.6568,-0.0314,0.0000,26.7926,0.2266
484.9900,0.6568,-0.0314,0.0000,26.7904,0.2249
485.0000,0.6568,-0.0314,0.0000,26.7881,0.2245
485.0100,0.6568,-0.0314,0.0000,26.7859,0.2247
485.0200,0.6568,-0.0314,0.0000,26.7836,0.2247
485.0300,0.6568,-0.0314,0.0000,26.7814,0.2245
485.0400,0.6568,-0.0314,0.0000,26.7791,0.2247
485.0500,0.6568,-0.0314,0.0000,26.7769,0.2230
485.0600,0.6568,-0.0314,0.0000,26.7747,0.2224
485.0700,0.6568,-0.0314,0.0000,26.7725,0.2220
485.0800,0.6568,-0.0314,0.0000,26.7703,0.2222
485.0900,0.6568,-0.0314,0.0000,26.7680,0.2222
485.1000,0.6568,-0.0314,0.0000,26.7658,0.2222
485.1100,0.6568,-0.0314,0.0000,26.7636,0.2218
485.1200,0.6568,-0.0314,0.0000,26.7614,0.2213
485.1300,0.6568,-0.0314,0.0000,26.7592,0.2199
485.1400,0.6568,-0.0314,0.0000,26.7570,0.2197
485.1500,0.6568,-0.0314,0.0000,26.7548,0.2197
485.1600,0.6568,-0.0314,0.0000,26.7526,0.2197
485.1700,0.6568,-0.0314,0.0000,26.7504,0.2193
485.1800,0.6568,-0.0314,0.0000,26.7482,0.2190
485.1900,0.6568,-0.0314,0.0000,26.7460,0.2178
485.2000,0.6568,-0.0314,0.0000,26.7439,0.2172
485.2100,0.6568,-0.0314,0.0000,26.7417,0.2172
485.2200,0.6568,-0.0314,0.0000,26.7395,0.2172
485.2300,0.6568,-0.0314,0.0000,26.7373,0.2172
485.2400,0.6568,-0.0314,0.0000,26.7352,0.2148
485.2500,0.6568,-0.0314,0.0000,26.7330,0.2138
485.2600,0.6568,-0.0314,0.0000,26.7309,0.2123
485.2700,0.6568,-0.0314,0.0000,26.7288,0.2125
485.2800,0.6568,-0.0314,0.0000,26.7267,0.2125
485.2900,0.6568,-0.0314,0.0000,26.7246,0.2123
485.3000,0.6568,-0.0314,0.0000,26.7224,0.2125
485.3100,0.6568,-0.0314,0.0000,26.7203,0.2121
485.3200,0.6568,-0.0314,0.0000,26.7182,0.2115
485.3300,0.6568,-0.0314,0.0000,26.7161,0.2102
485.3400,0.6568,-0.0314,0.0000,26.7140,0.2100
485.3500,0.6568,-0.0314,0.0000,26.7119,0.2098
485.3600,0.6568,-0.0314,0.0000,26.7098,0.2100
485.3700,0.6568,-0.0314,0.0000,26.7077,0.2100
485.3800,0.6568,-0.0314,0.0000,26.7056,0.2096
485.3900,0.6568,-0.0314,0.0000,26.7035,0.2089
485.4000,0.6568,-0.0314,0.0000,26.7014,0.2075
485.4100,0.6568,-0.0314,0.0000,26.6994,0.2075
485.4200,0.6568,-0.0314,0.0000,26.6973,0.2075
485.4300,0.6568,-0.0314,0.0000,26.6952,0.2075
485.4400,0.6568,-0.0314,0.0000,26.6931,0.2075
485.4500,0.6568,-0.0314,0.0000,26.6911,0.2073
485.4600,0.6568,-0.0314,0.0000,26.6890,0.2062
485.4700,0.6568,-0.0314,0.0000,26.6869,0.2054
485.4800,0.6568,-0.0314,0.0000,26.6849,0.2050
485.4900,0.6568,-0.0314,0.0000,26.6828,0.2050
485.5000,0.6568,-0.0314,0.0000,26.6808,0.2050
485.5100,0.6568,-0.0314,0.0000,26.6787,0.2050
485.5200,0.6568,-0.0314,0.0000,26.6767,0.2052
485.5300,0.6568,-0.0314,0.0000,26.6746,0.2045
485.5400,0.6568,-0.0314,0.0000,26.6726,0.2037
485.5500,0.6568,-0.0314,0.0000,26.6706,0.2026
485.5600,0.6568,-0.0314,0.0000,26.6686,0.2028
485.5700,0.6568,-0.0314,0.0000,26.6665,0.2026
485.5800,0.6568,-0.0314,0.0000,26.6645,0.2026
485.5900,0.6568,-0.0314,0.0000,26.6625,0.2028
485.6000,0.6568,-0.0314,0.0000,26.6605,0.2022
485.6100,0.6568,-0.0314,0.0000,26.6584,0.2014
485.6200,0.6568,-0.0314,0.0000,26.6564,0.2001
485.6300,0.6568,-0.0314,0.0000,26.6544,0.2003
485.6400,0.6568,-0.0314,0.0000,26.6524,0.2001
485.6500,0.6568,-0.0314,0.0000,26.6504,0.2003
485.6600,0.6568,-0.0314,0.0000,26.6484,0.2003
485.6700,0.6568,-0.0314,0.0000,26.6464,0.2001
485.6800,0.6568,-0.0314,0.0000,26.6444,0.1989
485.6900,0.6568,-0.0314,0.0000,26.6425,0.1984
485.7000,0.6568,-0.0314,0.0000,26.6405,0.1978
485.7100,0.6568,-0.0314,0.0000,26.6385,0.1976
485.7200,0.6568,-0.0314,0.0000,26.6365,0.1978
485.7300,0.6568,-0.0314,0.0000,26.6345,0.1978
485.7400,0.6568,-0.0314,0.0000,26.6326,0.1963
485.7500,0.6568,-0.0314,0.0000,26.6306,0.1938
485.7600,0.6568,-0.0314,0.0000,26.6287,0.1905
485.7700,0.6568,-0.0314,0.0000,26.6269,0.1852
485.7800,0.6568,-0.0314,0.0000,26.6251,0.1757
485.7900,0.6568,-0.0314,0.0000,26.6234,0.1760
485.8000,0.6568,-0.0314,0.0000,26.6216,0.1762
485.8100,0.6568,-0.0314,0.0000,26.6199,0.1738
485.8200,0.6568,-0.0314,0.0000,26.6182,0.1715
485.8300,0.6568,-0.0314,0.0000,26.6164,0.1770
485.8400,0.6568,-0.0314,0.0000,26.6146,0.1816
485.8500,0.6568,-0.0314,0.0000,26.6127,0.1848
485.8600,0.6568,-0.0314,0.0000,26.6108,0.1892
485.8700,0.6568,-0.0314,0.0000,26.6089,0.1947
485.8800,0.6568,-0.0314,0.0000,26.6069,0.2031
485.8900,0.6568,-0.0314,0.0000,26.6048,0.2028
485.9000,0.6568,-0.0314,0.0000,26.6028,0.2001
485.9100,0.6568,-0.0314,0.0000,26.6008,0.2035
485.9200,0.6568,-0.0314,0.0000,26.5987,0.2071
485.9300,0.6568,-0.0314,0.0000,26.5967,0.2020
485.9400,0.6568,-0.0314,0.0000,26.5948,0.1953
485.9500,0.6568,-0.0314,0.0000,26.5928,0.1928
485.9600,0.6568,-0.0314,0.0000,26.5909,0.1904
485.9700,0.6568,-0.0314,0.0000,26.5890,0.1892
485.9800,0.6568,-0.0314,0.0000,26.5872,0.1881
485.9900,0.6568,-0.0314,0.0000,26.5853,0.1877
486.0000,0.6568,-0.0314,0.0000,26.5834,0.1858
486.0100,0.6568,-0.0314,0.0000,26.5816,0.1856
486.0200,0.6568,-0.0314,0.0000,26.5797,0.1856
486.0300,0.6568,-0.0314,0.0000,26.5779,0.1856
486.0400,0.6568,-0.0314,0.0000,26.5760,0.1856
486.0500,0.6568,-0.0314,0.0000,26.5741,0.1854
486.0600,0.6568,-0.0314,0.0000,26.5722,0.1905
486.0700,0.6568,-0.0314,0.0000,26.5704,0.1789
486.0800,0.6568,-0.0314,0.0000,26.5687,0.1690
486.0900,0.6568,-0.0314,0.0000,26.5671,0.1640
486.1000,0.6568,-0.0314,0.0000,26.5655,0.1612
486.1100,0.6568,-0.0314,0.0000,26.5639,0.1560
486.1200,0.6568,-0.0314,0.0000,26.5623,0.1612
486.1300,0.6568,-0.0314,0.0000,26.5606,0.1652
486.1400,0.6568,-0.0314,0.0000,26.5590,0.1684
486.1500,0.6568,-0.0314,0.0000,26.5572,0.1707
486.1600,0.6568,-0.0314,0.0000,26.5555,0.1732
486.1700,0.6568,-0.0314,0.0000,26.5537,0.1780
486.1800,0.6568,-0.0314,0.0000,26.5519,0.1871
486.1900,0.6568,-0.0314,0.0000,26.5500,0.1881
486.2000,0.6568,-0.0314,0.0000,26.5480,0.1926
486.2100,0.6568,-0.0314,0.0000,26.5461,0.1963
486.2200,0.6568,-0.0314,0.0000,26.5443,0.1787
486.2300,0.6568,-0.0314,0.0000,26.5427,0.1640
486.2400,0.6568,-0.0314,0.0000,26.5411,0.1568
486.2500,0.6568,-0.0314,0.0000,26.5396,0.1524
486.2600,0.6568,-0.0314,0.0000,26.5381,0.1499
486.2700,0.6568,-0.0314,0.0000,26.5367,0.1425
486.2800,0.6568,-0.0314,0.0000,26.5352,0.1482
486.2900,0.6568,-0.0314,0.0000,26.5337,0.1526
486.3000,0.6568,-0.0314,0.0000,26.5321,0.1558
486.3100,0.6568,-0.0314,0.0000,26.5305,0.1583
486.3200,0.6568,-0.0314,0.0000,26.5288,0.1713
486.3300,0.6568,-0.0314,0.0000,26.5271,0.1749
486.3400,0.6568,-0.0314,0.0000,26.5253,0.1760
486.3500,0.6568,-0.0314,0.0000,26.5235,0.1766
486.3600,0.6568,-0.0314,0.0000,26.5218,0.1781
486.3700,0.6568,-0.0314,0.0000,26.5200,0.1810
486.3800,0.6568,-0.0314,0.0000,26.5182,0.1766
486.3900,0.6568,-0.0314,0.0000,26.5165,0.1698
486.4000,0.6568,-0.0314,0.0000,26.5148,0.1669
486.4100,0.6568,-0.0314,0.0000,26.5132,0.1648
486.4200,0.6568,-0.0314,0.0000,26.5115,0.1637
486.4300,0.6568,-0.0314,0.0000,26.5099,0.1627
486.4400,0.6568,-0.0314,0.0000,26.5083,0.1610
486.4500,0.6568,-0.0314,0.0000,26.5067,0.1612
486.4600,0.6568,-0.0314,0.0000,26.5051,0.1612
486.4700,0.6568,-0.0314,0.0000,26.5035,0.1612
486.4800,0.6568,-0.0314,0.0000,26.5019,0.1598
486.4900,0.6568,-0.0314,0.0000,26.5003,0.1600
486.5000,0.6568,-0.0314,0.0000,26.4987,0.1591
486.5100,0.6568,-0.0314,0.0000,26.4971,0.1595
486.5200,0.6568,-0.0314,0.0000,26.4955,0.1587
486.5300,0.6568,-0.0314,0.0000,26.4939,0.1587
486.5400,0.6568,-0.0314,0.0000,26.4923,0.1587
486.5500,0.6568,-0.0314,0.0000,26.4907,0.1587
486.5600,0.6568,-0.0314,0.0000,26.4892,0.1587
486.5700,0.6568,-0.0314,0.0000,26.4876,0.1587
486.5800,0.6568,-0.0314,0.0000,26.4860,0.1587
486.5900,0.6568,-0.0314,0.0000,26.4844,0.1587
486.6000,0.6568,-0.0314,0.0000,26.4828,0.1587
486.6100,0.6568,-0.0314,0.0000,26.4812,0.1587
486.6200,0.6568,-0.0314,0.0000,26.4796,0.1587
486.6300,0.6568,-0.0314,0.0000,26.4780,0.1587
486.6400,0.6568,-0.0314,0.0000,26.4765,0.1587
486.6500,0.6568,-0.0314,0.0000,26.4749,0.1587
486.6600,0.6568,-0.0314,0.0000,26.4733,0.1587
486.6700,0.6568,-0.0314,0.0000,26.4717,0.1579
486.6800,0.6568,-0.0314,0.0000,26.4701,0.1575
486.6900,0.6568,-0.0314,0.0000,26.4686,0.1566
486.7000,0.6568,-0.0314,0.0000,26.4670,0.1564
486.7100,0.6568,-0.0314,0.0000,26.4654,0.1562
486.7200,0.6568,-0.0314,0.0000,26.4639,0.1562
486.7300,0.6568,-0.0314,0.0000,26.4623,0.1562
486.7400,0.6568,-0.0314,0.0000,26.4608,0.1562
486.7500,0.6568,-0.0314,0.0000,26.4592,0.1564
486.7600,0.6568,-0.0314,0.0000,26.4576,0.1562
486.7700,0.6568,-0.0314,0.0000,26.4561,0.1560
486.7800,0.6568,-0.0314,0.0000,26.4545,0.1556
486.7900,0.6568,-0.0314,0.0000,26.4530,0.1547
486.8000,0.6568,-0.0314,0.0000,26.4514,0.1543
486.8100,0.6568,-0.0314,0.0000,26.4499,0.1537
486.8200,0.6568,-0.0314,0.0000,26.4483,0.1537
486.8300,0.6568,-0.0314,0.0000,26.4468,0.1539
486.8400,0.6568,-0.0314,0.0000,26.4453,0.1537
486.8500,0.6568,-0.0314,0.0000,26.4437,0.1539
486.8600,0.6568,-0.0314,0.0000,26.4422,0.1537
486.8700,0.6568,-0.0314,0.0000,26.4407,0.1537
486.8800,0.6568,-0.0314,0.0000,26.4391,0.1532
486.8900,0.6568,-0.0314,0.0000,26.4376,0.1518
486.9000,0.6568,-0.0314,0.0000,26.4361,0.1516
486.9100,0.6568,-0.0314,0.0000,26.4346,0.1514
486.9200,0.6568,-0.0314,0.0000,26.4331,0.1513
486.9300,0.6568,-0.0314,0.0000,26.4315,0.1514
486.9400,0.6568,-0.0314,0.0000,26.4301,0.1493
486.9500,0.6568,-0.0314,0.0000,26.4286,0.1484
486.9600,0.6568,-0.0314,0.0000,26.4271,0.1465
486.9700,0.6568,-0.0314,0.0000,26.4256,0.1465
486.9800,0.6568,-0.0314,0.0000,26.4242,0.1451
486.9900,0.6568,-0.0314,0.0000,26.4227,0.1438
487.0000,0.6568,-0.0314,0.0000,26.4213,0.1415
487.0100,0.6568,-0.0314,0.0000,26.4199,0.1402
487.0200,0.6568,-0.0314,0.0000,26.4185,0.1390
487.0300,0.6568,-0.0314,0.0000,26.4172,0.1381
487.0400,0.6568,-0.0314,0.0000,26.4158,0.1366
487.0500,0.6568,-0.0314,0.0000,26.4144,0.1368
487.0600,0.6568,-0.0314,0.0000,26.4131,0.1368
487.0700,0.6568,-0.0314,0.0000,26.4117,0.1368
487.0800,0.6568,-0.0314,0.0000,26.4103,0.1368
487.0900,0.6568,-0.0314,0.0000,26.4089,0.1366
487.1000,0.6568,-0.0314,0.0000,26.4076,0.1368
487.1100,0.6568,-0.0314,0.0000,26.4062,0.1368
487.1200,0.6568,-0.0314,0.0000,26.4048,0.1368
487.1300,0.6568,-0.0314,0.0000,26.4035,0.1368
487.1400,0.6568,-0.0314,0.0000,26.4021,0.1366
487.1500,0.6568,-0.0314,0.0000,26.4007,0.1368
487.1600,0.6568,-0.0314,0.0000,26.3994,0.1368
487.1700,0.6568,-0.0314,0.0000,26.3980,0.1362
487.1800,0.6568,-0.0314,0.0000,26.3967,0.1352
487.1900,0.6568,-0.0314,0.0000,26.3953,0.1343
487.2000,0.6568,-0.0314,0.0000,26.3940,0.1343
487.2100,0.6568,-0.0314,0.0000,26.3926,0.1343
487.2200,0.6568,-0.0314,0.0000,26.3913,0.1343
487.2300,0.6568,-0.0314,0.0000,26.3900,0.1339
487.2400,0.6568,-0.0314,0.0000,26.3886,0.1328
487.2500,0.6568,-0.0314,0.0000,26.3873,0.1318
487.2600,0.6568,-0.0314,0.0000,26.3860,0.1320
487.2700,0.6568,-0.0314,0.0000,26.3847,0.1318
487.2800,0.6568,-0.0314,0.0000,26.3833,0.1318
487.2900,0.6568,-0.0314,0.0000,26.3820,0.1318
487.3000,0.6568,-0.0314,0.0000,26.3807,0.1310
487.3100,0.6568,-0.0314,0.0000,26.3794,0.1303
487.3200,0.6568,-0.0314,0.0000,26.3774,0.2039
487.3300,0.6568,-0.0314,0.0000,26.3746,0.2819
487.3400,0.6568,-0.0314,0.0000,26.3723,0.2300
487.3500,0.6568,-0.0314,0.0000,26.3704,0.1900
487.3600,0.6568,-0.0314,0.0000,26.3688,0.1532
487.3700,0.6568,-0.0314,0.0000,26.3676,0.1242
487.3800,0.6568,-0.0314,0.0000,26.3666,0.1007
487.3900,0.6568,-0.0314,0.0000,26.3658,0.0826
487.4000,0.6568,-0.0314,0.0000,26.3651,0.0681
487.4100,0.6568,-0.0314,0.0000,26.3645,0.0566
487.4200,0.6568,-0.0314,0.0000,26.3640,0.0481
487.4300,0.6568,-0.0314,0.0000,26.3635,0.0568
487.4400,0.6568,-0.0314,0.0000,26.3625,0.0963
487.4500,0.6568,-0.0314,0.0000,26.3620,0.0540
487.4600,0.6568,-0.0314,0.0000,26.3613,0.0689
487.4700,0.6568,-0.0314,0.0000,26.3602,0.1059
487.4800,0.6568,-0.0314,0.0000,26.3588,0.1379
487.4900,0.6568,-0.0314,0.0000,26.3576,0.1287
487.5000,0.6568,-0.0314,0.0000,26.3562,0.1398
487.5100,0.6568,-0.0314,0.0000,26.3549,0.1257
487.5200,0.6568,-0.0314,0.0000,26.3538,0.1068
487.5300,0.6568,-0.0314,0.0000,26.3527,0.1080
487.5400,0.6568,-0.0314,0.0000,26.3518,0.0902
487.5500,0.6568,-0.0314,0.0000,26.3512,0.0690
487.5600,0.6568,-0.0314,0.0000,26.3506,0.0513
487.5700,0.6568,-0.0314,0.0000,26.3503,0.0362
487.5800,0.6568,-0.0314,0.0000,26.3500,0.0315
487.5900,0.6568,-0.0314,0.0000,26.3497,0.0235
487.6000,0.6568,-0.0314,0.0000,26.3498,-0.0059
487.6100,0.6568,-0.0314,0.0000,26.3499,-0.0103
487.6200,0.6568,-0.0314,0.0000,26.3498,0.0076
487.6300,0.6568,-0.0314,0.0000,26.3498,0.0071
487.6400,0.6568,-0.0314,0.0000,26.3496,0.0120
487.6500,0.6568,-0.0314,0.0000,26.3493,0.0322
487.6600,0.6568,-0.0314,0.0000,26.3489,0.0376
487.6700,0.6568,-0.0314,0.0000,26.3486,0.0362
487.6800,0.6568,-0.0314,0.0000,26.3483,0.0296
487.6900,0.6568,-0.0314,0.0000,26.3481,0.0122
487.7000,0.6568,-0.0314,0.0000,26.3482,-0.0017
487.7100,0.6568,-0.0314,0.0000,26.3483,-0.0122
487.7200,0.6568,-0.0314,0.0000,26.3484,-0.0092
487.7300,0.6568,-0.0314,0.0000,26.3486,-0.0248
487.7400,0.6568,-0.0314,0.0000,26.3489,-0.0299
487.7500,0.6568,-0.0314,0.0000,26.3493,-0.0341
487.7600,0.6568,-0.0314,0.0000,26.3497,-0.0488
487.7700,0.6568,-0.0314,0.0000,26.3502,-0.0435
487.7800,0.6568,-0.0314,0.0000,26.3508,-0.0654
487.7900,0.6568,-0.0314,0.0000,26.3513,-0.0511
487.8000,0.6568,-0.0314,0.0000,26.3519,-0.0517
487.8100,0.6568,-0.0314,0.0000,26.3524,-0.0587
487.8200,0.6568,-0.0314,0.0000,26.3532,-0.0704
487.8300,0.6568,-0.0314,0.0000,26.3537,-0.0557
487.8400,0.6568,-0.0314,0.0000,26.3542,-0.0473
487.8500,0.6568,-0.0314,0.0000,26.3546,-0.0463
487.8600,0.6568,-0.0314,0.0000,26.3550,-0.0319
487.8700,0.6568,-0.0314,0.0000,26.3553,-0.0322
487.8800,0.6568,-0.0314,0.0000,26.3556,-0.0336
487.8900,0.6568,-0.0314,0.0000,26.3561,-0.0435
487.9000,0.6568,-0.0314,0.0000,26.3566,-0.0555
487.9100,0.6568,-0.0314,0.0000,26.3572,-0.0563
487.9200,0.6568,-0.0314,0.0000,26.3578,-0.0578
487.9300,0.6568,-0.0314,0.0000,26.3585,-0.0742
487.9400,0.6568,-0.0314,0.0000,26.3593,-0.0776
487.9500,0.6568,-0.0314,0.0000,26.3601,-0.0771
487.9600,0.6568,-0.0314,0.0000,26.3608,-0.0767
487.9700,0.6568,-0.0314,0.0000,26.3616,-0.0757
487.9800,0.6568,-0.0314,0.0000,26.3623,-0.0748
487.9900,0.6568,-0.0314,0.0000,26.3631,-0.0732
488.0000,0.6568,-0.0314,0.0000,26.3638,-0.0725
488.0100,0.6568,-0.0314,0.0000,26.3645,-0.0708
488.0200,0.6568,-0.0314,0.0000,26.3652,-0.0700
488.0300,0.6568,-0.0314,0.0000,26.3659,-0.0687
488.0400,0.6568,-0.0314,0.0000,26.3666,-0.0679
488.0500,0.6568,-0.0314,0.0000,26.3670,-0.0401
488.0600,0.6568,-0.0314,0.0000,26.3671,-0.0139
488.0700,0.6568,-0.0314,0.0000,26.3674,-0.0349
488.0800,0.6568,-0.0314,0.0000,26.3680,-0.0517
488.0900,0.6568,-0.0314,0.0000,26.3686,-0.0654
488.1000,0.6568,-0.0314,0.0000,26.3694,-0.0763
488.1100,0.6568,-0.0314,0.0000,26.3702,-0.0847
488.1200,0.6568,-0.0314,0.0000,26.3711,-0.0917
488.1300,0.6568,-0.0314,0.0000,26.3721,-0.0971
488.1400,0.6568,-0.0314,0.0000,26.3731,-0.1015
488.1500,0.6568,-0.0314,0.0000,26.3742,-0.1040
488.1600,0.6568,-0.0314,0.0000,26.3752,-0.1070
488.1700,0.6568,-0.0314,0.0000,26.3757,-0.0509
488.1800,0.6568,-0.0314,0.0000,26.3763,-0.0540
488.1900,0.6568,-0.0314,0.0000,26.3769,-0.0587
488.2000,0.6568,-0.0314,0.0000,26.3775,-0.0635
488.2100,0.6568,-0.0314,0.0000,26.3782,-0.0687
488.2200,0.6568,-0.0314,0.0000,26.3789,-0.0727
488.2300,0.6568,-0.0314,0.0000,26.3797,-0.0772
488.2400,0.6568,-0.0314,0.0000,26.3805,-0.0813
488.2500,0.6568,-0.0314,0.0000,26.3814,-0.0847
488.2600,0.6568,-0.0314,0.0000,26.3822,-0.0887
488.2700,0.6568,-0.0314,0.0000,26.3832,-0.0914
488.2800,0.6568,-0.0314,0.0000,26.3841,-0.0942
488.2900,0.6568,-0.0314,0.0000,26.3851,-0.0969
488.3000,0.6568,-0.0314,0.0000,26.3861,-0.0990
488.3100,0.6568,-0.0314,0.0000,26.3871,-0.1015
488.3200,0.6568,-0.0314,0.0000,26.3881,-0.1028
488.3300,0.6568,-0.0314,0.0000,26.3891,-0.1043
488.3400,0.6568,-0.0314,0.0000,26.3902,-0.1055
488.3500,0.6568,-0.0314,0.0000,26.3913,-0.1072
488.3600,0.6568,-0.0314,0.0000,26.3923,-0.1078
488.3700,0.6568,-0.0314,0.0000,26.3934,-0.1081
488.3800,0.6568,-0.0314,0.0000,26.3945,-0.1093
488.3900,0.6568,-0.0314,0.0000,26.3956,-0.1095
488.4000,0.6568,-0.0314,0.0000,26.3967,-0.1099
488.4100,0.6568,-0.0314,0.0000,26.3978,-0.1101
488.4200,0.6568,-0.0314,0.0000,26.3989,-0.1101
488.4300,0.6568,-0.0314,0.0000,26.4000,-0.1104
488.4400,0.6568,-0.0314,0.0000,26.4011,-0.1108
488.4500,0.6568,-0.0314,0.0000,26.4022,-0.1102
488.4600,0.6568,-0.0314,0.0000,26.4033,-0.1102
488.4700,0.6568,-0.0314,0.0000,26.4044,-0.1102
488.4800,0.6568,-0.0314,0.0000,26.4055,-0.1102
488.4900,0.6568,-0.0314,0.0000,26.4066,-0.1101
488.5000,0.6568,-0.0314,0.0000,26.4077,-0.1099
488.5100,0.6568,-0.0314,0.0000,26.4088,-0.1101
488.5200,0.6568,-0.0314,0.0000,26.4099,-0.1101
488.5300,0.6568,-0.0314,0.0000,26.4110,-0.1097
488.5400,0.6568,-0.0314,0.0000,26.4121,-0.1099
488.5500,0.6568,-0.0314,0.0000,26.4132,-0.1095
488.5600,0.6568,-0.0314,0.0000,26.4143,-0.1087
488.5700,0.6568,-0.0314,0.0000,26.4154,-0.1085
488.5800,0.6568,-0.0314,0.0000,26.4165,-0.1080
488.5900,0.6568,-0.0314,0.0000,26.4176,-0.1078
488.6000,0.6568,-0.0314,0.0000,26.4186,-0.1080
488.6100,0.6568,-0.0314,0.0000,26.4197,-0.1074
488.6200,0.6568,-0.0314,0.0000,26.4208,-0.1074
488.6300,0.6568,-0.0314,0.0000,26.4219,-0.1072
488.6400,0.6568,-0.0314,0.0000,26.4229,-0.1068
488.6500,0.6568,-0.0314,0.0000,26.4240,-0.1072
488.6600,0.6568,-0.0314,0.0000,26.4251,-0.1060
488.6700,0.6568,-0.0314,0.0000,26.4261,-0.1060
488.6800,0.6568,-0.0314,0.0000,26.4272,-0.1055
488.6900,0.6568,-0.0314,0.0000,26.4282,-0.1057
488.7000,0.6568,-0.0314,0.0000,26.4293,-0.1053
488.7100,0.6568,-0.0314,0.0000,26.4303,-0.1049
488.7200,0.6568,-0.0314,0.0000,26.4314,-0.1051
488.7300,0.6568,-0.0314,0.0000,26.4324,-0.1049
488.7400,0.6568,-0.0314,0.0000,26.4335,-0.1040
488.7500,0.6568,-0.0314,0.0000,26.4345,-0.1043
488.7600,0.6568,-0.0314,0.0000,26.4356,-0.1038
488.7700,0.6568,-0.0314,0.0000,26.4366,-0.1041
488.7800,0.6568,-0.0314,0.0000,26.4376,-0.1036
488.7900,0.6568,-0.0314,0.0000,26.4387,-0.1036
488.8000,0.6568,-0.0314,0.0000,26.4397,-0.1030
488.8100,0.6568,-0.0314,0.0000,26.4407,-0.1026
488.8200,0.6568,-0.0314,0.0000,26.4417,-0.1024
488.8300,0.6568,-0.0314,0.0000,26.4428,-0.1026
488.8400,0.6568,-0.0314,0.0000,26.4438,-0.1020
488.8500,0.6568,-0.0314,0.0000,26.4448,-0.1022
488.8600,0.6568,-0.0314,0.0000,26.4458,-0.1019
488.8700,0.6568,-0.0314,0.0000,26.4468,-0.1015
488.8800,0.6568,-0.0314,0.0000,26.4479,-0.1019
488.8900,0.6568,-0.0314,0.0000,26.4489,-0.1013
488.9000,0.6568,-0.0314,0.0000,26.4499,-0.1011
488.9100,0.6568,-0.0314,0.0000,26.4509,-0.1011
488.9200,0.6568,-0.0314,0.0000,26.4519,-0.1001
488.9300,0.6568,-0.0314,0.0000,26.4529,-0.1001
488.9400,0.6568,-0.0314,0.0000,26.4539,-0.1001
488.9500,0.6568,-0.0314,0.0000,26.4549,-0.0998
488.9600,0.6568,-0.0314,0.0000,26.4559,-0.1001
488.9700,0.6568,-0.0314,0.0000,26.4569,-0.0999
488.9800,0.6568,-0.0314,0.0000,26.4579,-0.0996
488.9900,0.6568,-0.0314,0.0000,26.4589,-0.0998
489.0000,0.6568,-0.0314,0.0000,26.4599,-0.0994
489.0100,0.6568,-0.0314,0.0000,26.4609,-0.0994
489.0200,0.6568,-0.0314,0.0000,26.4619,-0.0978
489.0300,0.6568,-0.0314,0.0000,26.4629,-0.0990
489.0400,0.6568,-0.0314,0.0000,26.4638,-0.0977
489.0500,0.6568,-0.0314,0.0000,26.4648,-0.0978
489.0600,0.6568,-0.0314,0.0000,26.4658,-0.0977
489.0700,0.6568,-0.0314,0.0000,26.4668,-0.0977
489.0800,0.6568,-0.0314,0.0000,26.4677,-0.0977
489.0900,0.6568,-0.0314,0.0000,26.4687,-0.0977
489.1000,0.6568,-0.0314,0.0000,26.4697,-0.0977
489.1100,0.6568,-0.0314,0.0000,26.4707,-0.0973
489.1200,0.6568,-0.0314,0.0000,26.4716,-0.0971
489.1300,0.6568,-0.0314,0.0000,26.4726,-0.0969
489.1400,0.6568,-0.0314,0.0000,26.4736,-0.0969
489.1500,0.6568,-0.0314,0.0000,26.4745,-0.0971
489.1600,0.6568,-0.0314,0.0000,26.4755,-0.0969
489.1700,0.6568,-0.0314,0.0000,26.4765,-0.0959
489.1800,0.6568,-0.0314,0.0000,26.4774,-0.0961
489.1900,0.6568,-0.0314,0.0000,26.4784,-0.0957
489.2000,0.6568,-0.0314,0.0000,26.4793,-0.0954
489.2100,0.6568,-0.0314,0.0000,26.4803,-0.0952
489.2200,0.6568,-0.0314,0.0000,26.4813,-0.0954
489.2300,0.6568,-0.0314,0.0000,26.4822,-0.0952
489.2400,0.6568,-0.0314,0.0000,26.4831,-0.0948
489.2500,0.6568,-0.0314,0.0000,26.4841,-0.0944
489.2600,0.6568,-0.0314,0.0000,26.4850,-0.0950
489.2700,0.6568,-0.0314,0.0000,26.4860,-0.0950
489.2800,0.6568,-0.0314,0.0000,26.4869,-0.0946
489.2900,0.6568,-0.0314,0.0000,26.4879,-0.0950
489.3000,0.6568,-0.0314,0.0000,26.4888,-0.0942
489.3100,0.6568,-0.0314,0.0000,26.4898,-0.0942
489.3200,0.6568,-0.0314,0.0000,26.4907,-0.0940
489.3300,0.6568,-0.0314,0.0000,26.4917,-0.0940
489.3400,0.6568,-0.0314,0.0000,26.4926,-0.0935
489.3500,0.6568,-0.0314,0.0000,26.4935,-0.0933
489.3600,0.6568,-0.0314,0.0000,26.4945,-0.0933
489.3700,0.6568,-0.0314,0.0000,26.4954,-0.0923
489.3800,0.6568,-0.0314,0.0000,26.4963,-0.0923
489.3900,0.6568,-0.0314,0.0000,26.4972,-0.0917
489.4000,0.6568,-0.0314,0.0000,26.4981,-0.0917
489.4100,0.6568,-0.0314,0.0000,26.4991,-0.0927
489.4200,0.6568,-0.0314,0.0000,26.5000,-0.0925
489.4300,0.6568,-0.0314,0.0000,26.5009,-0.0923
489.4400,0.6568,-0.0314,0.0000,26.5018,-0.0912
489.4500,0.6568,-0.0314,0.0000,26.5027,-0.0914
489.4600,0.6568,-0.0314,0.0000,26.5037,-0.0914
489.4700,0.6568,-0.0314,0.0000,26.5046,-0.0906
489.4800,0.6568,-0.0314,0.0000,26.5055,-0.0904
489.4900,0.6568,-0.0314,0.0000,26.5064,-0.0910
489.5000,0.6568,-0.0314,0.0000,26.5073,-0.0908
489.5100,0.6568,-0.0314,0.0000,26.5082,-0.0906
489.5200,0.6568,-0.0314,0.0000,26.5091,-0.0902
489.5300,0.6874,-0.0008,0.0000,26.5100,-0.0904
489.5400,0.6874,-0.0008,0.0000,26.5109,-0.0950
489.5500,0.6874,-0.0008,0.0000,26.5121,-0.1188
489.5600,0.6874,-0.0008,0.0000,26.5136,-0.1478
489.5700,0.6874,-0.0008,0.0000,26.5153,-0.1741
489.5800,0.6874,-0.0008,0.0000,26.5173,-0.1993
489.5900,0.6874,-0.0008,0.0000,26.5196,-0.2235
489.6000,0.6874,-0.0008,0.0000,26.5220,-0.2466
489.6100,0.6874,-0.0008,0.0000,26.5247,-0.2678
489.6200,0.6874,-0.0008,0.0000,26.5276,-0.2878
489.6300,0.6874,-0.0008,0.0000,26.5307,-0.3069
489.6400,0.6874,-0.0008,0.0000,26.5339,-0.3239
489.6500,0.6874,-0.0008,0.0000,26.5373,-0.3401
489.6600,0.6874,-0.0008,0.0000,26.5409,-0.3557
489.6700,0.6874,-0.0008,0.0000,26.5446,-0.3706
489.6800,0.6874,-0.0008,0.0000,26.5484,-0.3836
489.6900,0.6874,-0.0008,0.0000,26.5524,-0.3963
489.7000,0.6874,-0.0008,0.0000,26.5564,-0.4080
489.7100,0.6874,-0.0008,0.0000,26.5606,-0.4200
489.7200,0.6874,-0.0008,0.0000,26.5649,-0.4297
489.7300,0.6874,-0.0008,0.0000,26.5693,-0.4398
489.7400,0.6874,-0.0008,0.0000,26.5738,-0.4496
489.7500,0.6874,-0.0008,0.0000,26.5784,-0.4564
489.7600,0.6874,-0.0008,0.0000,26.5831,-0.4654
489.7700,0.6874,-0.0008,0.0000,26.5878,-0.4725
489.7800,0.6874,-0.0008,0.0000,26.5926,-0.4795
489.7900,0.6874,-0.0008,0.0000,26.5974,-0.4858
489.8000,0.6874,-0.0008,0.0000,26.6024,-0.4915
489.8100,0.6874,-0.0008,0.0000,26.6073,-0.4974
489.8200,0.6874,-0.0008,0.0000,26.6124,-0.5028
489.8300,0.6874,-0.0008,0.0000,26.6174,-0.5066
489.8400,0.6874,-0.0008,0.0000,26.6225,-0.5114
489.8500,0.6874,-0.0008,0.0000,26.6277,-0.5163
489.8600,0.6874,-0.0008,0.0000,26.6329,-0.5201
489.8700,0.6874,-0.0008,0.0000,26.6381,-0.5230
489.8800,0.6874,-0.0008,0.0000,26.6434,-0.5270
489.8900,0.6874,-0.0008,0.0000,26.6487,-0.5299
489.9000,0.6874,-0.0008,0.0000,26.6540,-0.5322
489.9100,0.6874,-0.0008,0.0000,26.6594,-0.5350
489.9200,0.6874,-0.0008,0.0000,26.6647,-0.5377
489.9300,0.6874,-0.0008,0.0000,26.6701,-0.5404
489.9400,0.6874,-0.0008,0.0000,26.6756,-0.5413
489.9500,0.6874,-0.0008,0.0000,26.6810,-0.5434
489.9600,0.6874,-0.0008,0.0000,26.6865,-0.5457
489.9700,0.6874,-0.0008,0.0000,26.6919,-0.5470
489.9800,0.6874,-0.0008,0.0000,26.6974,-0.5476
489.9900,0.6874,-0.0008,0.0000,26.7029,-0.5493
490.0000,0.6874,-0.0008,0.0000,26.7084,-0.5505
490.0100,0.6874,-0.0008,0.0000,26.7139,-0.5516
490.0200,0.6874,-0.0008,0.0000,26.7194,-0.5520
490.0300,0.6874,-0.0008,0.0000,26.7250,-0.5524
490.0400,0.6874,-0.0008,0.0000,26.7305,-0.5512
490.0500,0.6874,-0.0008,0.0000,26.7360,-0.5516
490.0600,0.6874,-0.0008,0.0000,26.7415,-0.5522
490.0700,0.6874,-0.0008,0.0000,26.7470,-0.5535
490.0800,0.6874,-0.0008,0.0000,26.7526,-0.5533
490.0900,0.6874,-0.0008,0.0000,26.7581,-0.5539
490.1000,0.6874,-0.0008,0.0000,26.7637,-0.5537
490.1100,0.6874,-0.0008,0.0000,26.7692,-0.5541
490.1200,0.6874,-0.0008,0.0000,26.7747,-0.5539
490.1300,0.6874,-0.0008,0.0000,26.7803,-0.5543
490.1400,0.6874,-0.0008,0.0000,26.7858,-0.5545
490.1500,0.6874,-0.0008,0.0000,26.7914,-0.5543
490.1600,0.6874,-0.0008,0.0000,26.7969,-0.5539
490.1700,0.6874,-0.0008,0.0000,26.8024,-0.5539
490.1800,0.6874,-0.0008,0.0000,26.8080,-0.5541
490.1900,0.6874,-0.0008,0.0000,26.8135,-0.5529
490.2000,0.6874,-0.0008,0.0000,26.8190,-0.5527
490.2100,0.6874,-0.0008,0.0000,26.8246,-0.5529
490.2200,0.6874,-0.0008,0.0000,26.8301,-0.5522
490.2300,0.6874,-0.0008,0.0000,26.8356,-0.5518
490.2400,0.6874,-0.0008,0.0000,26.8411,-0.5518
490.2500,0.6874,-0.0008,0.0000,26.8466,-0.5514
490.2600,0.6874,-0.0008,0.0000,26.8521,-0.5503
490.2700,0.6874,-0.0008,0.0000,26.8576,-0.5501
490.2800,0.6874,-0.0008,0.0000,26.8631,-0.5493
490.2900,0.6874,-0.0008,0.0000,26.8686,-0.5497
490.3000,0.6874,-0.0008,0.0000,26.8741,-0.5482
490.3100,0.6874,-0.0008,0.0000,26.8796,-0.5487
490.3200,0.6874,-0.0008,0.0000,26.8851,-0.5470
490.3300,0.6874,-0.0008,0.0000,26.8905,-0.5468
490.3400,0.6874,-0.0008,0.0000,26.8960,-0.5463
490.3500,0.6874,-0.0008,0.0000,26.9015,-0.5455
490.3600,0.6874,-0.0008,0.0000,26.9069,-0.5447
490.3700,0.6874,-0.0008,0.0000,26.9123,-0.5442
490.3800,0.6874,-0.0008,0.0000,26.9178,-0.5436
490.3900,0.6874,-0.0008,0.0000,26.9232,-0.5432
490.4000,0.6874,-0.0008,0.0000,26.9286,-0.5421
490.4100,0.6874,-0.0008,0.0000,26.9341,-0.5419
490.4200,0.6874,-0.0008,0.0000,26.9395,-0.5407
490.4300,0.6874,-0.0008,0.0000,26.9449,-0.5398
490.4400,0.6874,-0.0008,0.0000,26.9503,-0.5394
490.4500,0.6874,-0.0008,0.0000,26.9556,-0.5383
490.4600,0.6874,-0.0008,0.0000,26.9610,-0.5383
490.4700,0.6874,-0.0008,0.0000,26.9664,-0.5369
490.4800,0.6874,-0.0008,0.0000,26.9718,-0.5365
490.4900,0.6874,-0.0008,0.0000,26.9771,-0.5352
490.5000,0.6874,-0.0008,0.0000,26.9825,-0.5350
490.5100,0.6874,-0.0008,0.0000,26.9878,-0.5339
490.5200,0.6874,-0.0008,0.0000,26.9931,-0.5333
490.5300,0.6874,-0.0008,0.0000,26.9985,-0.5323
490.5400,0.6874,-0.0008,0.0000,27.0038,-0.5318
490.5500,0.6874,-0.0008,0.0000,27.0091,-0.5308
490.5600,0.6874,-0.0008,0.0000,27.0144,-0.5297
490.5700,0.6874,-0.0008,0.0000,27.0197,-0.5301
490.5800,0.6874,-0.0008,0.0000,27.0250,-0.5283
490.5900,0.6874,-0.0008,0.0000,27.0302,-0.5276
490.6000,0.6874,-0.0008,0.0000,27.0355,-0.5274
490.6100,0.6874,-0.0008,0.0000,27.0408,-0.5264
490.6200,0.6874,-0.0008,0.0000,27.0460,-0.5249
490.6300,0.6874,-0.0008,0.0000,27.0513,-0.5247
490.6400,0.6874,-0.0008,0.0000,27.0565,-0.5241
490.6500,0.6874,-0.0008,0.0000,27.0617,-0.5236
490.6600,0.6874,-0.0008,0.0000,27.0670,-0.5222
490.6700,0.6874,-0.0008,0.0000,27.0722,-0.5215
490.6800,0.6874,-0.0008,0.0000,27.0774,-0.5201
490.6900,0.6874,-0.0008,0.0000,27.0826,-0.5175
490.7000,0.6874,-0.0008,0.0000,27.0877,-0.5163
490.7100,0.6874,-0.0008,0.0000,27.0929,-0.5159
490.7200,0.6874,-0.0008,0.0000,27.0980,-0.5152
490.7300,0.6874,-0.0008,0.0000,27.1032,-0.5142
490.7400,0.6874,-0.0008,0.0000,27.1083,-0.5133
490.7500,0.6874,-0.0008,0.0000,27.1134,-0.5125
490.7600,0.6874,-0.0008,0.0000,27.1186,-0.5125
490.7700,0.6874,-0.0008,0.0000,27.1237,-0.5112
490.7800,0.6874,-0.0008,0.0000,27.1288,-0.5106
490.7900,0.6874,-0.0008,0.0000,27.1339,-0.5102
490.8000,0.6874,-0.0008,0.0000,27.1390,-0.5095
490.8100,0.6874,-0.0008,0.0000,27.1440,-0.5074
490.8200,0.6874,-0.0008,0.0000,27.1491,-0.5075
490.8300,0.6874,-0.0008,0.0000,27.1542,-0.5064
490.8400,0.6874,-0.0008,0.0000,27.1592,-0.5060
490.8500,0.6874,-0.0008,0.0000,27.1643,-0.5049
490.8600,0.6874,-0.0008,0.0000,27.1693,-0.5039
490.8700,0.6874,-0.0008,0.0000,27.1744,-0.5032
490.8800,0.6874,-0.0008,0.0000,27.1794,-0.5026
490.8900,0.6874,-0.0008,0.0000,27.1844,-0.5014
490.9000,0.6874,-0.0008,0.0000,27.1894,-0.5009
490.9100,0.6874,-0.0008,0.0000,27.1944,-0.5003
490.9200,0.6874,-0.0008,0.0000,27.1994,-0.4995
490.9300,0.6874,-0.0008,0.0000,27.2044,-0.4982
490.9400,0.6874,-0.0008,0.0000,27.2094,-0.4982
490.9500,0.6874,-0.0008,0.0000,27.2143,-0.4971
490.9600,0.6874,-0.0008,0.0000,27.2193,-0.4965
490.9700,0.6874,-0.0008,0.0000,27.2243,-0.4957
490.9800,0.6874,-0.0008,0.0000,27.2292,-0.4950
490.9900,0.6874,-0.0008,0.0000,27.2342,-0.4938
491.0000,0.6874,-0.0008,0.0000,27.2391,-0.4927
491.0100,0.6874,-0.0008,0.0000,27.2440,-0.4919
491.0200,0.6874,-0.0008,0.0000,27.2489,-0.4913
491.0300,0.6874,-0.0008,0.0000,27.2538,-0.4913
491.0400,0.6874,-0.0008,0.0000,27.2587,-0.4898
491.0500,0.6874,-0.0008,0.0000,27.2636,-0.4887
491.0600,0.6874,-0.0008,0.0000,27.2685,-0.4883
491.0700,0.6874,-0.0008,0.0000,27.2734,-0.4883
491.0800,0.6874,-0.0008,0.0000,27.2783,-0.4871
491.0900,0.6874,-0.0008,0.0000,27.2831,-0.4858
491.1000,0.6874,-0.0008,0.0000,27.2880,-0.4858
491.1100,0.6874,-0.0008,0.0000,27.2928,-0.4848
491.1200,0.6874,-0.0008,0.0000,27.2977,-0.4837
491.1300,0.6874,-0.0008,0.0000,27.3025,-0.4829
491.1400,0.6874,-0.0008,0.0000,27.3073,-0.4824
491.1500,0.6874,-0.0008,0.0000,27.3121,-0.4814
491.1600,0.6874,-0.0008,0.0000,27.3169,-0.4807
491.1700,0.6874,-0.0008,0.0000,27.3217,-0.4795
491.1800,0.6874,-0.0008,0.0000,27.3265,-0.4793
491.1900,0.6874,-0.0008,0.0000,27.3313,-0.4786
491.2000,0.6874,-0.0008,0.0000,27.3361,-0.4778
491.2100,0.6874,-0.0008,0.0000,27.3409,-0.4768
491.2200,0.6874,-0.0008,0.0000,27.3456,-0.4761
491.2300,0.6874,-0.0008,0.0000,27.3504,-0.4761
491.2400,0.6874,-0.0008,0.0000,27.3551,-0.4747
491.2500,0.6874,-0.0008,0.0000,27.3599,-0.4734
491.2600,0.6874,-0.0008,0.0000,27.3646,-0.4728
491.2700,0.6874,-0.0008,0.0000,27.3693,-0.4725
491.2800,0.6874,-0.0008,0.0000,27.3740,-0.4713
491.2900,0.6874,-0.0008,0.0000,27.3787,-0.4704
491.3000,0.6874,-0.0008,0.0000,27.3834,-0.4698
491.3100,0.6874,-0.0008,0.0000,27.3881,-0.4694
491.3200,0.6874,-0.0008,0.0000,27.3928,-0.4690
491.3300,0.6874,-0.0008,0.0000,27.3975,-0.4698
491.3400,0.6874,-0.0008,0.0000,27.4023,-0.4778
491.3500,0.6874,-0.0008,0.0000,27.4070,-0.4726
491.3600,0.6874,-0.0008,0.0000,27.4117,-0.4690
491.3700,0.6874,-0.0008,0.0000,27.4163,-0.4646
491.3800,0.6874,-0.0008,0.0000,27.4210,-0.4616
491.3900,0.6874,-0.0008,0.0000,27.4256,-0.4597
491.4000,0.6874,-0.0008,0.0000,27.4301,-0.4551
491.4100,0.6874,-0.0008,0.0000,27.4346,-0.4530
491.4200,0.6874,-0.0008,0.0000,27.4391,-0.4509
491.4300,0.6874,-0.0008,0.0000,27.4436,-0.4498
491.4400,0.6874,-0.0008,0.0000,27.4482,-0.4513
491.4500,0.6874,-0.0008,0.0000,27.4527,-0.4578
491.4600,0.6874,-0.0008,0.0000,27.4573,-0.4564
491.4700,0.6874,-0.0008,0.0000,27.4618,-0.4545
491.4800,0.6874,-0.0008,0.0000,27.4664,-0.4530
491.4900,0.6874,-0.0008,0.0000,27.4709,-0.4517
491.5000,0.6874,-0.0008,0.0000,27.4754,-0.4496
491.5100,0.6874,-0.0008,0.0000,27.4799,-0.4482
491.5200,0.6874,-0.0008,0.0000,27.4843,-0.4465
491.5300,0.6874,-0.0008,0.0000,27.4888,-0.4454
491.5400,0.6874,-0.0008,0.0000,27.4932,-0.4435
491.5500,0.6874,-0.0008,0.0000,27.4976,-0.4421
491.5600,0.6874,-0.0008,0.0000,27.5021,-0.4414
491.5700,0.6874,-0.0008,0.0000,27.5065,-0.4400
491.5800,0.6874,-0.0008,0.0000,27.5108,-0.4391
491.5900,0.6874,-0.0008,0.0000,27.5152,-0.4374
491.6000,0.6874,-0.0008,0.0000,27.5196,-0.4370
491.6100,0.6874,-0.0008,0.0000,27.5240,-0.4360
491.6200,0.6874,-0.0008,0.0000,27.5283,-0.4353
491.6300,0.6874,-0.0008,0.0000,27.5328,-0.4530
491.6400,0.6874,-0.0008,0.0000,27.5373,-0.4452
491.6500,0.6874,-0.0008,0.0000,27.5417,-0.4381
491.6600,0.6874,-0.0008,0.0000,27.5460,-0.4316
491.6700,0.6874,-0.0008,0.0000,27.5502,-0.4265
491.6800,0.6874,-0.0008,0.0000,27.5545,-0.4211
491.6900,0.6874,-0.0008,0.0000,27.5586,-0.4179
491.7000,0.6874,-0.0008,0.0000,27.5628,-0.4150
491.7100,0.6874,-0.0008,0.0000,27.5669,-0.4124
491.7200,0.6874,-0.0008,0.0000,27.5710,-0.4099
491.7300,0.6874,-0.0008,0.0000,27.5751,-0.4089
491.7400,0.6874,-0.0008,0.0000,27.5794,-0.4265
491.7500,0.6874,-0.0008,0.0000,27.5836,-0.4244
491.7600,0.6874,-0.0008,0.0000,27.5878,-0.4227
491.7700,0.6874,-0.0008,0.0000,27.5920,-0.4194
491.7800,0.6874,-0.0008,0.0000,27.5962,-0.4169
491.7900,0.6874,-0.0008,0.0000,27.6003,-0.4148
491.8000,0.6874,-0.0008,0.0000,27.6045,-0.4124
491.8100,0.6874,-0.0008,0.0000,27.6086,-0.4103
491.8200,0.6874,-0.0008,0.0000,27.6127,-0.4078
491.8300,0.6874,-0.0008,0.0000,27.6167,-0.4061
491.8400,0.6874,-0.0008,0.0000,27.6208,-0.4045
491.8500,0.6874,-0.0008,0.0000,27.6248,-0.4030
491.8600,0.6874,-0.0008,0.0000,27.6288,-0.4013
491.8700,0.6874,-0.0008,0.0000,27.6328,-0.3990
491.8800,0.6874,-0.0008,0.0000,27.6368,-0.3977
491.8900,0.6874,-0.0008,0.0000,27.6407,-0.3967
491.9000,0.6874,-0.0008,0.0000,27.6447,-0.3962
491.9100,0.6874,-0.0008,0.0000,27.6486,-0.3942
491.9200,0.6874,-0.0008,0.0000,27.6527,-0.4080
491.9300,0.6874,-0.0008,0.0000,27.6568,-0.4038
491.9400,0.6874,-0.0008,0.0000,27.6607,-0.3958
491.9500,0.6874,-0.0008,0.0000,27.6646,-0.3902
491.9600,0.6874,-0.0008,0.0000,27.6685,-0.3843
491.9700,0.6874,-0.0008,0.0000,27.6723,-0.3799
491.9800,0.6874,-0.0008,0.0000,27.6760,-0.3769
491.9900,0.6874,-0.0008,0.0000,27.6798,-0.3736
492.0000,0.6874,-0.0008,0.0000,27.6835,-0.3712
492.0100,0.6874,-0.0008,0.0000,27.6872,-0.3687
492.0200,0.6874,-0.0008,0.0000,27.6908,-0.3666
492.0300,0.6874,-0.0008,0.0000,27.6947,-0.3828
492.0400,0.6874,-0.0008,0.0000,27.6985,-0.3815
492.0500,0.6874,-0.0008,0.0000,27.7023,-0.3801
492.0600,0.6874,-0.0008,0.0000,27.7061,-0.3778
492.0700,0.6874,-0.0008,0.0000,27.7098,-0.3752
492.0800,0.6874,-0.0008,0.0000,27.7135,-0.3736
492.0900,0.6874,-0.0008,0.0000,27.7173,-0.3714
492.1000,0.6874,-0.0008,0.0000,27.7209,-0.3689
492.1100,0.6874,-0.0008,0.0000,27.7246,-0.3674
492.1200,0.6874,-0.0008,0.0000,27.7283,-0.3654
492.1300,0.6874,-0.0008,0.0000,27.7319,-0.3635
492.1400,0.6874,-0.0008,0.0000,27.7355,-0.3616
492.1500,0.6874,-0.0008,0.0000,27.7391,-0.3613
492.1600,0.6874,-0.0008,0.0000,27.7427,-0.3592
492.1700,0.6874,-0.0008,0.0000,27.7463,-0.3580
492.1800,0.6874,-0.0008,0.0000,27.7499,-0.3563
492.1900,0.6874,-0.0008,0.0000,27.7534,-0.3561
492.2000,0.6874,-0.0008,0.0000,27.7570,-0.3542
492.2100,0.6874,-0.0008,0.0000,27.7606,-0.3664
492.2200,0.6874,-0.0008,0.0000,27.7643,-0.3624
492.2300,0.6874,-0.0008,0.0000,27.7678,-0.3544
492.2400,0.6874,-0.0008,0.0000,27.7713,-0.3489
492.2500,0.6874,-0.0008,0.0000,27.7747,-0.3443
492.2600,0.6874,-0.0008,0.0000,27.7781,-0.3384
492.2700,0.6874,-0.0008,0.0000,27.7815,-0.3340
492.2800,0.6874,-0.0008,0.0000,27.7848,-0.3309
492.2900,0.6874,-0.0008,0.0000,27.7881,-0.3286
492.3000,0.6874,-0.0008,0.0000,27.7913,-0.3271
492.3100,0.6874,-0.0008,0.0000,27.7946,-0.3242
492.3200,0.6874,-0.0008,0.0000,27.7980,-0.3403
492.3300,0.6874,-0.0008,0.0000,27.8014,-0.3391
492.3400,0.6874,-0.0008,0.0000,27.8047,-0.3378
492.3500,0.6874,-0.0008,0.0000,27.8081,-0.3353
492.3600,0.6874,-0.0008,0.0000,27.8114,-0.3332
492.3700,0.6874,-0.0008,0.0000,27.8148,-0.3321
492.3800,0.6874,-0.0008,0.0000,27.8180,-0.3298
492.3900,0.6874,-0.0008,0.0000,27.8213,-0.3281
492.4000,0.6874,-0.0008,0.0000,27.8246,-0.3260
492.4100,0.6874,-0.0008,0.0000,27.8278,-0.3248
492.4200,0.6874,-0.0008,0.0000,27.8311,-0.3229
492.4300,0.6874,-0.0008,0.0000,27.8343,-0.3218
492.4400,0.6874,-0.0008,0.0000,27.8375,-0.3199
492.4500,0.6874,-0.0008,0.0000,27.8407,-0.3195
492.4600,0.6874,-0.0008,0.0000,27.8439,-0.3180
492.4700,0.6874,-0.0008,0.0000,27.8470,-0.3168
492.4800,0.6874,-0.0008,0.0000,27.8502,-0.3155
492.4900,0.6874,-0.0008,0.0000,27.8533,-0.3149
492.5000,0.6874,-0.0008,0.0000,27.8566,-0.3265
492.5100,0.6874,-0.0008,0.0000,27.8598,-0.3202
492.5200,0.6874,-0.0008,0.0000,27.8629,-0.3128
492.5300,0.6874,-0.0008,0.0000,27.8660,-0.3077
492.5400,0.6874,-0.0008,0.0000,27.8690,-0.3029
492.5500,0.6874,-0.0008,0.0000,27.8720,-0.2991
492.5600,0.6874,-0.0008,0.0000,27.8750,-0.2958
492.5700,0.6874,-0.0008,0.0000,27.8779,-0.2941
492.5800,0.6874,-0.0008,0.0000,27.8808,-0.2913
492.5900,0.6874,-0.0008,0.0000,27.8837,-0.2892
492.6000,0.6874,-0.0008,0.0000,27.8866,-0.2899
492.6100,0.6874,-0.0008,0.0000,27.8896,-0.3012
492.6200,0.6874,-0.0008,0.0000,27.8926,-0.3004
492.6300,0.6874,-0.0008,0.0000,27.8956,-0.2993
492.6400,0.6874,-0.0008,0.0000,27.8986,-0.2979
492.6500,0.6874,-0.0008,0.0000,27.9016,-0.2956
492.6600,0.6874,-0.0008,0.0000,27.9045,-0.2935
492.6700,0.6874,-0.0008,0.0000,27.9074,-0.2930
492.6800,0.6874,-0.0008,0.0000,27.9103,-0.2907
492.6900,0.6874,-0.0008,0.0000,27.9132,-0.2895
492.7000,0.6874,-0.0008,0.0000,27.9161,-0.2880
492.7100,0.6874,-0.0008,0.0000,27.9190,-0.2867
492.7200,0.6874,-0.0008,0.0000,27.9218,-0.2851
492.7300,0.6874,-0.0008,0.0000,27.9247,-0.2834
492.7400,0.6874,-0.0008,0.0000,27.9275,-0.2831
492.7500,0.6874,-0.0008,0.0000,27.9303,-0.2817
492.7600,0.6874,-0.0008,0.0000,27.9331,-0.2808
492.7700,0.6874,-0.0008,0.0000,27.9359,-0.2802
492.7800,0.6874,-0.0008,0.0000,27.9387,-0.2800
492.7900,0.6874,-0.0008,0.0000,27.9416,-0.2884
492.8000,0.6874,-0.0008,0.0000,27.9444,-0.2806
492.8100,0.6874,-0.0008,0.0000,27.9472,-0.2747
492.8200,0.6874,-0.0008,0.0000,27.9499,-0.2697
492.8300,0.6874,-0.0008,0.0000,27.9525,-0.2657
492.8400,0.6874,-0.0008,0.0000,27.9551,-0.2625
492.8500,0.6874,-0.0008,0.0000,27.9577,-0.2592
492.8600,0.6874,-0.0008,0.0000,27.9603,-0.2575
492.8700,0.6874,-0.0008,0.0000,27.9629,-0.2546
492.8800,0.6874,-0.0008,0.0000,27.9654,-0.2535
492.8900,0.6874,-0.0008,0.0000,27.9680,-0.2562
492.9000,0.6874,-0.0008,0.0000,27.9706,-0.2636
492.9100,0.6874,-0.0008,0.0000,27.9732,-0.2640
492.9200,0.6874,-0.0008,0.0000,27.9758,-0.2623
492.9300,0.6874,-0.0008,0.0000,27.9785,-0.2615
492.9400,0.6874,-0.0008,0.0000,27.9811,-0.2590
492.9500,0.6874,-0.0008,0.0000,27.9836,-0.2581
492.9600,0.6874,-0.0008,0.0000,27.9862,-0.2565
492.9700,0.6874,-0.0008,0.0000,27.9888,-0.2558
492.9800,0.6874,-0.0008,0.0000,27.9913,-0.2539
492.9900,0.6874,-0.0008,0.0000,27.9938,-0.2527
493.0000,0.6874,-0.0008,0.0000,27.9963,-0.2516
493.0100,0.6874,-0.0008,0.0000,27.9988,-0.2504
493.0200,0.6874,-0.0008,0.0000,28.0013,-0.2491
493.0300,0.6874,-0.0008,0.0000,28.0038,-0.2480
493.0400,0.6874,-0.0008,0.0000,28.0063,-0.2466
493.0500,0.6874,-0.0008,0.0000,28.0087,-0.2466
493.0600,0.6874,-0.0008,0.0000,28.0112,-0.2455
493.0700,0.6874,-0.0008,0.0000,28.0137,-0.2483
493.0800,0.6874,-0.0008,0.0000,28.0162,-0.2501
493.0900,0.6874,-0.0008,0.0000,28.0186,-0.2434
493.1000,0.6874,-0.0008,0.0000,28.0210,-0.2371
493.1100,0.6874,-0.0008,0.0000,28.0233,-0.2329
493.1200,0.6874,-0.0008,0.0000,28.0256,-0.2293
493.1300,0.6874,-0.0008,0.0000,28.0279,-0.2268
493.1400,0.6874,-0.0008,0.0000,28.0301,-0.2241
493.1500,0.6874,-0.0008,0.0000,28.0323,-0.2222
493.1600,0.6874,-0.0008,0.0000,28.0345,-0.2199
493.1700,0.6874,-0.0008,0.0000,28.0367,-0.2197
493.1800,0.6874,-0.0008,0.0000,28.0390,-0.2247
493.1900,0.6874,-0.0008,0.0000,28.0413,-0.2289
493.2000,0.6874,-0.0008,0.0000,28.0436,-0.2283
493.2100,0.6874,-0.0008,0.0000,28.0458,-0.2272
493.2200,0.6874,-0.0008,0.0000,28.0481,-0.2260
493.2300,0.6874,-0.0008,0.0000,28.0503,-0.2245
493.2400,0.6874,-0.0008,0.0000,28.0526,-0.2241
493.2500,0.6874,-0.0008,0.0000,28.0548,-0.2226
493.2600,0.6874,-0.0008,0.0000,28.0570,-0.2216
493.2700,0.6874,-0.0008,0.0000,28.0592,-0.2197
493.2800,0.6874,-0.0008,0.0000,28.0614,-0.2190
493.2900,0.6874,-0.0008,0.0000,28.0636,-0.2172
493.3000,0.6874,-0.0008,0.0000,28.0658,-0.2172
493.3100,0.6874,-0.0008,0.0000,28.0679,-0.2157
493.3200,0.6874,-0.0008,0.0000,28.0701,-0.2148
493.3300,0.6874,-0.0008,0.0000,28.0722,-0.2148
493.3400,0.6874,-0.0008,0.0000,28.0743,-0.2132
493.3500,0.6874,-0.0008,0.0000,28.0765,-0.2123
493.3600,0.6874,-0.0008,0.0000,28.0786,-0.2167
493.3700,0.6874,-0.0008,0.0000,28.0807,-0.2123
493.3800,0.6874,-0.0008,0.0000,28.0828,-0.2066
493.3900,0.6874,-0.0008,0.0000,28.0848,-0.2018
493.4000,0.6874,-0.0008,0.0000,28.0868,-0.1980
493.4100,0.6874,-0.0008,0.0000,28.0888,-0.1945
493.4200,0.6874,-0.0008,0.0000,28.0907,-0.1926
493.4300,0.6874,-0.0008,0.0000,28.0926,-0.1904
493.4400,0.6874,-0.0008,0.0000,28.0945,-0.1884
493.4500,0.6874,-0.0008,0.0000,28.0964,-0.1879
493.4600,0.6874,-0.0008,0.0000,28.0982,-0.1858
493.4700,0.6874,-0.0008,0.0000,28.1002,-0.1947
493.4800,0.6874,-0.0008,0.0000,28.1021,-0.1953
493.4900,0.6874,-0.0008,0.0000,28.1041,-0.1945
493.5000,0.6874,-0.0008,0.0000,28.1060,-0.1932
493.5100,0.6874,-0.0008,0.0000,28.1079,-0.1928
493.5200,0.6874,-0.0008,0.0000,28.1098,-0.1921
493.5300,0.6874,-0.0008,0.0000,28.1117,-0.1905
493.5400,0.6874,-0.0008,0.0000,28.1136,-0.1902
493.5500,0.6874,-0.0008,0.0000,28.1155,-0.1883
493.5600,0.6874,-0.0008,0.0000,28.1174,-0.1879
493.5700,0.6874,-0.0008,0.0000,28.1193,-0.1865
493.5800,0.6874,-0.0008,0.0000,28.1211,-0.1856
493.5900,0.6874,-0.0008,0.0000,28.1230,-0.1854
493.6000,0.6874,-0.0008,0.0000,28.1248,-0.1816
493.6100,0.6874,-0.0008,0.0000,28.1266,-0.1806
493.6200,0.6874,-0.0008,0.0000,28.1284,-0.1806
493.6300,0.6874,-0.0008,0.0000,28.1302,-0.1795
493.6400,0.6874,-0.0008,0.0000,28.1320,-0.1793
493.6500,0.6874,-0.0008,0.0000,28.1338,-0.1810
493.6600,0.6874,-0.0008,0.0000,28.1356,-0.1749
493.6700,0.6874,-0.0008,0.0000,28.1372,-0.1694
493.6800,0.6874,-0.0008,0.0000,28.1389,-0.1650
493.6900,0.6874,-0.0008,0.0000,28.1405,-0.1625
493.7000,0.6874,-0.0008,0.0000,28.1421,-0.1596
493.7100,0.6874,-0.0008,0.0000,28.1437,-0.1577
493.7200,0.6874,-0.0008,0.0000,28.1453,-0.1562
493.7300,0.6874,-0.0008,0.0000,28.1468,-0.1541
493.7400,0.6874,-0.0008,0.0000,28.1483,-0.1537
493.7500,0.6874,-0.0008,0.0000,28.1499,-0.1558
493.7600,0.6874,-0.0008,0.0000,28.1515,-0.1606
493.7700,0.6874,-0.0008,0.0000,28.1531,-0.1612
493.7800,0.6874,-0.0008,0.0000,28.1547,-0.1608
493.7900,0.6874,-0.0008,0.0000,28.1563,-0.1587
493.8000,0.6874,-0.0008,0.0000,28.1579,-0.1587
493.8100,0.6874,-0.0008,0.0000,28.1595,-0.1587
493.8200,0.6874,-0.0008,0.0000,28.1611,-0.1568
493.8300,0.6874,-0.0008,0.0000,28.1626,-0.1562
493.8400,0.6874,-0.0008,0.0000,28.1642,-0.1562
493.8500,0.6874,-0.0008,0.0000,28.1657,-0.1547
493.8600,0.6874,-0.0008,0.0000,28.1673,-0.1537
493.8700,0.6874,-0.0008,0.0000,28.1688,-0.1537
493.8800,0.6874,-0.0008,0.0000,28.1703,-0.1518
493.8900,0.6874,-0.0008,0.0000,28.1718,-0.1514
493.9000,0.6874,-0.0008,0.0000,28.1733,-0.1514
493.9100,0.6874,-0.0008,0.0000,28.1748,-0.1503
493.9200,0.6874,-0.0008,0.0000,28.1763,-0.1490
493.9300,0.6874,-0.0008,0.0000,28.1778,-0.1499
493.9400,0.6874,-0.0008,0.0000,28.1793,-0.1465
493.9500,0.6874,-0.0008,0.0000,28.1807,-0.1411
493.9600,0.6874,-0.0008,0.0000,28.1821,-0.1368
493.9700,0.6874,-0.0008,0.0000,28.1834,-0.1331
493.9800,0.6874,-0.0008,0.0000,28.1847,-0.1307
493.9900,0.6874,-0.0008,0.0000,28.1860,-0.1287
494.0000,0.6874,-0.0008,0.0000,28.1873,-0.1268
494.0100,0.6874,-0.0008,0.0000,28.1885,-0.1253
494.0200,0.6874,-0.0008,0.0000,28.1898,-0.1245
494.0300,0.6874,-0.0008,0.0000,28.1910,-0.1240
494.0400,0.6874,-0.0008,0.0000,28.1923,-0.1284
494.0500,0.6874,-0.0008,0.0000,28.1936,-0.1295
494.0600,0.6874,-0.0008,0.0000,28.1949,-0.1293
494.0700,0.6874,-0.0008,0.0000,28.1962,-0.1295
494.0800,0.6874,-0.0008,0.0000,28.1975,-0.1293
494.0900,0.6874,-0.0008,0.0000,28.1988,-0.1293
494.1000,0.6874,-0.0008,0.0000,28.2000,-0.1280
494.1100,0.6874,-0.0008,0.0000,28.2013,-0.1270
494.1200,0.6874,-0.0008,0.0000,28.2026,-0.1268
494.1300,0.6874,-0.0008,0.0000,28.2039,-0.1270
494.1400,0.6874,-0.0008,0.0000,28.2051,-0.1247
494.1500,0.6874,-0.0008,0.0000,28.2063,-0.1245
494.1600,0.6874,-0.0008,0.0000,28.2076,-0.1245
494.1700,0.6874,-0.0008,0.0000,28.2088,-0.1234
494.1800,0.6874,-0.0008,0.0000,28.2100,-0.1221
494.1900,0.6874,-0.0008,0.0000,28.2113,-0.1221
494.2000,0.6874,-0.0008,0.0000,28.2125,-0.1221
494.2100,0.6874,-0.0008,0.0000,28.2137,-0.1207
494.2200,0.6874,-0.0008,0.0000,28.2149,-0.1188
494.2300,0.6874,-0.0008,0.0000,28.2160,-0.1131
494.2400,0.6874,-0.0008,0.0000,28.2171,-0.1085
494.2500,0.6874,-0.0008,0.0000,28.2182,-0.1055
494.2600,0.6874,-0.0008,0.0000,28.2192,-0.1028
494.2700,0.6874,-0.0008,0.0000,28.2202,-0.1003
494.2800,0.6874,-0.0008,0.0000,28.2212,-0.0986
494.2900,0.6874,-0.0008,0.0000,28.2221,-0.0977
494.3000,0.6874,-0.0008,0.0000,28.2231,-0.0959
494.3100,0.6874,-0.0008,0.0000,28.2241,-0.0952
494.3200,0.6874,-0.0008,0.0000,28.2250,-0.0963
494.3300,0.6874,-0.0008,0.0000,28.2260,-0.0996
494.3400,0.6874,-0.0008,0.0000,28.2270,-0.1001
494.3500,0.6874,-0.0008,0.0000,28.2280,-0.1001
494.3600,0.6874,-0.0008,0.0000,28.2290,-0.0999
494.3700,0.6874,-0.0008,0.0000,28.2300,-0.1001
494.3800,0.6874,-0.0008,0.0000,28.2310,-0.1001
494.3900,0.6874,-0.0008,0.0000,28.2320,-0.1001
494.4000,0.6874,-0.0008,0.0000,28.2330,-0.0998
494.4100,0.6874,-0.0008,0.0000,28.2340,-0.0980
494.4200,0.6874,-0.0008,0.0000,28.2350,-0.0977
494.4300,0.6874,-0.0008,0.0000,28.2360,-0.0977
494.4400,0.6874,-0.0008,0.0000,28.2369,-0.0977
494.4500,0.6874,-0.0008,0.0000,28.2379,-0.0959
494.4600,0.6874,-0.0008,0.0000,28.2388,-0.0952
494.4700,0.6874,-0.0008,0.0000,28.2398,-0.0952
494.4800,0.6874,-0.0008,0.0000,28.2407,-0.0952
494.4900,0.6874,-0.0008,0.0000,28.2417,-0.0952
494.5000,0.6874,-0.0008,0.0000,28.2426,-0.0923
494.5100,0.6874,-0.0008,0.0000,28.2435,-0.0864
494.5200,0.6874,-0.0008,0.0000,28.2443,-0.0820
494.5300,0.6874,-0.0008,0.0000,28.2451,-0.0788
494.5400,0.6874,-0.0008,0.0000,28.2458,-0.0755
494.5500,0.6874,-0.0008,0.0000,28.2466,-0.0732
494.5600,0.6874,-0.0008,0.0000,28.2473,-0.0715
494.5700,0.6874,-0.0008,0.0000,28.2480,-0.0710
494.5800,0.6874,-0.0008,0.0000,28.2487,-0.0692
494.5900,0.6874,-0.0008,0.0000,28.2494,-0.0685
494.6000,0.6874,-0.0008,0.0000,28.2501,-0.0675
494.6100,0.6874,-0.0008,0.0000,28.2508,-0.0698
494.6200,0.6874,-0.0008,0.0000,28.2515,-0.0711
494.6300,0.6874,-0.0008,0.0000,28.2522,-0.0732
494.6400,0.6874,-0.0008,0.0000,28.2529,-0.0732
494.6500,0.6874,-0.0008,0.0000,28.2537,-0.0732
494.6600,0.6874,-0.0008,0.0000,28.2544,-0.0732
494.6700,0.6874,-0.0008,0.0000,28.2551,-0.0732
494.6800,0.6874,-0.0008,0.0000,28.2559,-0.0732
494.6900,0.6874,-0.0008,0.0000,28.2566,-0.0717
494.7000,0.6874,-0.0008,0.0000,28.2573,-0.0708
494.7100,0.6874,-0.0008,0.0000,28.2580,-0.0708
494.7200,0.6874,-0.0008,0.0000,28.2587,-0.0710
494.7300,0.6874,-0.0008,0.0000,28.2594,-0.0708
494.7400,0.6874,-0.0008,0.0000,28.2601,-0.0702
494.7500,0.6874,-0.0008,0.0000,28.2608,-0.0687
494.7600,0.6874,-0.0008,0.0000,28.2615,-0.0685
494.7700,0.6874,-0.0008,0.0000,28.2622,-0.0683
494.7800,0.6874,-0.0008,0.0000,28.2628,-0.0664
494.7900,0.6874,-0.0008,0.0000,28.2634,-0.0608
494.8000,0.6874,-0.0008,0.0000,28.2640,-0.0559
494.8100,0.6874,-0.0008,0.0000,28.2645,-0.0525
494.8200,0.6874,-0.0008,0.0000,28.2650,-0.0496
494.8300,0.6874,-0.0008,0.0000,28.2655,-0.0473
494.8400,0.6874,-0.0008,0.0000,28.2660,-0.0462
494.8500,0.6874,-0.0008,0.0000,28.2664,-0.0441
494.8600,0.6874,-0.0008,0.0000,28.2668,-0.0439
494.8700,0.6874,-0.0008,0.0000,28.2673,-0.0435
494.8800,0.6874,-0.0008,0.0000,28.2677,-0.0414
494.8900,0.6874,-0.0008,0.0000,28.2681,-0.0408
494.9000,0.6874,-0.0008,0.0000,28.2685,-0.0441
494.9100,0.6874,-0.0008,0.0000,28.2690,-0.0450
494.9200,0.6874,-0.0008,0.0000,28.2694,-0.0465
494.9300,0.6874,-0.0008,0.0000,28.2699,-0.0463
494.9400,0.6874,-0.0008,0.0000,28.2704,-0.0463
494.9500,0.6874,-0.0008,0.0000,28.2708,-0.0463
494.9600,0.6874,-0.0008,0.0000,28.2713,-0.0463
494.9700,0.6874,-0.0008,0.0000,28.2718,-0.0465
494.9800,0.6874,-0.0008,0.0000,28.2722,-0.0463
494.9900,0.6874,-0.0008,0.0000,28.2727,-0.0463
495.0000,0.6874,-0.0008,0.0000,28.2732,-0.0463
495.0100,0.6874,-0.0008,0.0000,28.2810,-0.0463
495.0200,0.6874,-0.0008,0.0000,28.2738,-0.0463
495.0300,0.6874,-0.0008,0.0000,28.2675,-0.0463
495.0400,0.6874,-0.0008,0.0000,28.2619,-0.0463
495.0500,0.6874,-0.0008,0.0000,28.2570,-0.0463
495.0600,0.6874,-0.0008,0.0000,28.2525,-0.0463
495.0700,0.6874,-0.0008,0.0000,28.2485,-0.0463
495.0800,0.6874,-0.0008,0.0000,28.2448,-0.0463
495.0900,0.6874,-0.0008,0.0000,28.2415,-0.0463
495.1000,0.6874,-0.0008,0.0000,28.2384,-0.0463
495.1100,0.6874,-0.0008,0.0000,28.2355,-0.0463
495.1200,0.6874,-0.0008,0.0000,28.2328,-0.0463
495.1300,0.6874,-0.0008,0.0000,28.2303,-0.0463
495.1400,0.6874,-0.0008,0.0000,28.2279,-0.0463
495.1500,0.6874,-0.0008,0.0000,28.2256,-0.0463
495.1600,0.6874,-0.0008,0.0000,28.2234,-0.0463
495.1700,0.6874,-0.0008,0.0000,28.2213,-0.0463
495.1800,0.6874,-0.0008,0.0000,28.2193,-0.0463
495.1900,0.6874,-0.0008,0.0000,28.2173,-0.0463
495.2000,0.6874,-0.0008,0.0000,28.2154,-0.0463
495.2100,0.6874,-0.0008,0.0000,28.2135,-0.0463
495.2200,0.6874,-0.0008,0.0000,28.2117,-0.0463
495.2300,0.6874,-0.0008,0.0000,28.2106,-0.0463
495.2400,0.6874,-0.0008,0.0000,28.2098,-0.0463
495.2500,0.6874,-0.0008,0.0000,28.2090,-0.0463
495.2600,0.6874,-0.0008,0.0000,28.2084,-0.0463
495.2700,0.6874,-0.0008,0.0000,28.2078,-0.0463
495.2800,0.6874,-0.0008,0.0000,28.2072,-0.0463
495.2900,0.6874,-0.0008,0.0000,28.2066,-0.0463
495.3000,0.6874,-0.0008,0.0000,28.2060,-0.0463
495.3100,0.6874,-0.0008,0.0000,28.2054,-0.0463
495.3200,0.6874,-0.0008,0.0000,28.2047,-0.0463
495.3300,0.6874,-0.0008,0.0000,28.2041,-0.0463
495.3400,0.6874,-0.0008,0.0000,28.2037,-0.0463
495.3500,0.6874,-0.0008,0.0000,28.2032,-0.0463
495.3600,0.6874,-0.0008,0.0000,28.2026,-0.0463
495.3700,0.6874,-0.0008,0.0000,28.2019,-0.0463
495.3800,0.6874,-0.0008,0.0000,28.2011,-0.0463
495.3900,0.6874,-0.0008,0.0000,28.2002,-0.0463
495.4000,0.6874,-0.0008,0.0000,28.1993,-0.0463
495.4100,0.6874,-0.0008,0.0000,28.1984,-0.0463
495.4200,0.6874,-0.0008,0.0000,28.1974,-0.0463
495.4300,0.6874,-0.0008,0.0000,28.1964,-0.0463
495.4400,0.6874,-0.0008,0.0000,28.1953,-0.0463
495.4500,0.6874,-0.0008,0.0000,28.1943,-0.0463
495.4600,0.6874,-0.0008,0.0000,28.1933,-0.0463
495.4700,0.6874,-0.0008,0.0000,28.1923,-0.0463
495.4800,0.6874,-0.0008,0.0000,28.1913,-0.0463
495.4900,0.6874,-0.0008,0.0000,28.1903,-0.0463
495.5000,0.6874,-0.0008,0.0000,28.1893,-0.0463
495.5100,0.6874,-0.0008,0.0000,28.1883,-0.0463
495.5200,0.6874,-0.0008,0.0000,28.1873,-0.0463
495.5300,0.6874,-0.0008,0.0000,28.1863,-0.0463
495.5400,0.6874,-0.0008,0.0000,28.1854,-0.0463
495.5500,0.6874,-0.0008,0.0000,28.1844,-0.0463
495.5600,0.6874,-0.0008,0.0000,28.1834,-0.0463
495.5700,0.6874,-0.0008,0.0000,28.1825,-0.0463
495.5800,0.6874,-0.0008,0.0000,28.1815,-0.0463
495.5900,0.6874,-0.0008,0.0000,28.1804,-0.0463
495.6000,0.6874,-0.0008,0.0000,28.1794,-0.0463
495.6100,0.6874,-0.0008,0.0000,28.1786,-0.0463
495.6200,0.6874,-0.0008,0.0000,28.1779,-0.0463
495.6300,0.6874,-0.0008,0.0000,28.1771,-0.0463
495.6400,0.6874,-0.0008,0.0000,28.1764,-0.0463
495.6500,0.6874,-0.0008,0.0000,28.1757,-0.0463
495.6600,0.6874,-0.0008,0.0000,28.1749,-0.0463
495.6700,0.6874,-0.0008,0.0000,28.1742,-0.0463
495.6800,0.6874,-0.0008,0.0000,28.1735,-0.0463
495.6900,0.6874,-0.0008,0.0000,28.1729,-0.0463
495.7000,0.6874,-0.0008,0.0000,28.1722,-0.0463
495.7100,0.6874,-0.0008,0.0000,28.1716,-0.0463
495.7200,0.6874,-0.0008,0.0000,28.1711,-0.0463
495.7300,0.6874,-0.0008,0.0000,28.1706,-0.0463
495.7400,0.6874,-0.0008,0.0000,28.1701,-0.0463
495.7500,0.6874,-0.0008,0.0000,28.1696,-0.0463
495.7600,0.6874,-0.0008,0.0000,28.1690,-0.0463
495.7700,0.6874,-0.0008,0.0000,28.1684,-0.0463
495.7800,0.6874,-0.0008,0.0000,28.1679,-0.0463
495.7900,0.6874,-0.0008,0.0000,28.1673,-0.0463
495.8000,0.6874,-0.0008,0.0000,28.1668,-0.0463
495.8100,0.6874,-0.0008,0.0000,28.1662,-0.0463
495.8200,0.6874,-0.0008,0.0000,28.1657,-0.0463
495.8300,0.6874,-0.0008,0.0000,28.1651,-0.0463
495.8400,0.6874,-0.0008,0.0000,28.1645,-0.0463
495.8500,0.6874,-0.0008,0.0000,28.1639,-0.0463
495.8600,0.6874,-0.0008,0.0000,28.1633,-0.0463
495.8700,0.6874,-0.0008,0.0000,28.1627,-0.0463
495.8800,0.6874,-0.0008,0.0000,28.1621,-0.0463
495.8900,0.6874,-0.0008,0.0000,28.1615,-0.0463
495.9000,0.6874,-0.0008,0.0000,28.1609,-0.0463
495.9100,0.6874,-0.0008,0.0000,28.1603,-0.0463
495.9200,0.6874,-0.0008,0.0000,28.1597,-0.0463
495.9300,0.6874,-0.0008,0.0000,28.1591,-0.0463
495.9400,0.6874,-0.0008,0.0000,28.1585,-0.0463
495.9500,0.6874,-0.0008,0.0000,28.1579,-0.0463
495.9600,0.6874,-0.0008,0.0000,28.1573,-0.0463
495.9700,0.6874,-0.0008,0.0000,28.1567,-0.0463
495.9800,0.6874,-0.0008,0.0000,28.1561,-0.0463
495.9900,0.6874,-0.0008,0.0000,28.1556,-0.0463
496.0000,0.6874,-0.0008,0.0000,28.1550,-0.0463
496.0100,0.6874,-0.0008,0.0000,28.1544,-0.0463
496.0200,0.6874,-0.0008,0.0000,28.1538,-0.0463
496.0300,0.6874,-0.0008,0.0000,28.1532,-0.0463
496.0400,0.6874,-0.0008,0.0000,28.1526,-0.0463
496.0500,0.6874,-0.0008,0.0000,28.1520,-0.0463
496.0600,0.6874,-0.0008,0.0000,28.1514,-0.0463
496.0700,0.6874,-0.0008,0.0000,28.1509,-0.0463
496.0800,0.6874,-0.0008,0.0000,28.1503,-0.0463
496.0900,0.6874,-0.0008,0.0000,28.1497,-0.0463
496.1000,0.6874,-0.0008,0.0000,28.1491,-0.0463
496.1100,0.6874,-0.0008,0.0000,28.1485,-0.0463
496.1200,0.6874,-0.0008,0.0000,28.1479,-0.0463
496.1300,0.6874,-0.0008,0.0000,28.1474,-0.0463
496.1400,0.6874,-0.0008,0.0000,28.1468,-0.0463
496.1500,0.6874,-0.0008,0.0000,28.1462,-0.0463
496.1600,0.6874,-0.0008,0.0000,28.1456,-0.0463
496.1700,0.6874,-0.0008,0.0000,28.1450,-0.0463
496.1800,0.6874,-0.0008,0.0000,28.1444,-0.0463
496.1900,0.6874,-0.0008,0.0000,28.1438,-0.0463
496.2000,0.6874,-0.0008,0.0000,28.1433,-0.0463
496.2100,0.6874,-0.0008,0.0000,28.1427,-0.0463
496.2200,0.6874,-0.0008,0.0000,28.1421,-0.0463
496.2300,0.6874,-0.0008,0.0000,28.1415,-0.0463
496.2400,0.6874,-0.0008,0.0000,28.1409,-0.0463
496.2500,0.6874,-0.0008,0.0000,28.1404,-0.0463
496.2600,0.6874,-0.0008,0.0000,28.1398,-0.0463
496.2700,0.6874,-0.0008,0.0000,28.1392,-0.0463
496.2800,0.6874,-0.0008,0.0000,28.1386,-0.0463
496.2900,0.6874,-0.0008,0.0000,28.1381,-0.0463
496.3000,0.6874,-0.0008,0.0000,28.1375,-0.0463
496.3100,0.6874,-0.0008,0.0000,28.1369,-0.0463
496.3200,0.6874,-0.0008,0.0000,28.1364,-0.0463
496.3300,0.6874,-0.0008,0.0000,28.1358,-0.0463
496.3400,0.6874,-0.0008,0.0000,28.1353,-0.0463
496.3500,0.6874,-0.0008,0.0000,28.1347,-0.0463
496.3600,0.6874,-0.0008,0.0000,28.1341,-0.0463
496.3700,0.6874,-0.0008,0.0000,28.1336,-0.0463
496.3800,0.6874,-0.0008,0.0000,28.1330,-0.0463
496.3900,0.6874,-0.0008,0.0000,28.1325,-0.0463
496.4000,0.6874,-0.0008,0.0000,28.1319,-0.0463
496.4100,0.6874,-0.0008,0.0000,28.1313,-0.0463
496.4200,0.6874,-0.0008,0.0000,28.1308,-0.0463
496.4300,0.6874,-0.0008,0.0000,28.1302,-0.0463
496.4400,0.6874,-0.0008,0.0000,28.1296,-0.0463
496.4500,0.6874,-0.0008,0.0000,28.1291,-0.0463
496.4600,0.6874,-0.0008,0.0000,28.1286,-0.0463
496.4700,0.6874,-0.0008,0.0000,28.1281,-0.0463
496.4800,0.6874,-0.0008,0.0000,28.1275,-0.0463
496.4900,0.6874,-0.0008,0.0000,28.1270,-0.0463
496.5000,0.6874,-0.0008,0.0000,28.1265,-0.0463
496.5100,0.6874,-0.0008,0.0000,28.1260,0.0513
496.5200,0.6874,-0.0008,0.0000,28.1255,0.0513
496.5300,0.6874,-0.0008,0.0000,28.1250,0.0513
496.5400,0.6874,-0.0008,0.0000,28.1245,0.0511
496.5500,0.6874,-0.0008,0.0000,28.1240,0.0513
496.5600,0.6874,-0.0008,0.0000,28.1234,0.0513
496.5700,0.6874,-0.0008,0.0000,28.1229,0.0513
496.5800,0.6874,-0.0008,0.0000,28.1224,0.0513
496.5900,0.6874,-0.0008,0.0000,28.1219,0.0511
496.6000,0.6874,-0.0008,0.0000,28.1214,0.0513
496.6100,0.6874,-0.0008,0.0000,28.1209,0.0513
496.6200,0.6874,-0.0008,0.0000,28.1204,0.0513
496.6300,0.6874,-0.0008,0.0000,28.1199,0.0513
496.6400,0.6874,-0.0008,0.0000,28.1193,0.0511
496.6500,0.6874,-0.0008,0.0000,28.1188,0.0513
496.6600,0.6874,-0.0008,0.0000,28.1183,0.0513
496.6700,0.6874,-0.0008,0.0000,28.1178,0.0513
496.6800,0.6874,-0.0008,0.0000,28.1173,0.0513
496.6900,0.6874,-0.0008,0.0000,28.1168,0.0511
496.7000,0.6874,-0.0008,0.0000,28.1163,0.0513
496.7100,0.6874,-0.0008,0.0000,28.1158,0.0513
496.7200,0.6874,-0.0008,0.0000,28.1152,0.0513
496.7300,0.6874,-0.0008,0.0000,28.1147,0.0513
496.7400,0.6874,-0.0008,0.0000,28.1142,0.0511
496.7500,0.6874,-0.0008,0.0000,28.1137,0.0513
496.7600,0.6874,-0.0008,0.0000,28.1132,0.0513
496.7700,0.6874,-0.0008,0.0000,28.1127,0.0513
496.7800,0.6874,-0.0008,0.0000,28.1122,0.0513
496.7900,0.6874,-0.0008,0.0000,28.1117,0.0511
496.8000,0.6874,-0.0008,0.0000,28.1111,0.0513
496.8100,0.6874,-0.0008,0.0000,28.1106,0.0513
496.8200,0.6874,-0.0008,0.0000,28.1101,0.0511
496.8300,0.6874,-0.0008,0.0000,28.1096,0.0488
496.8400,0.6874,-0.0008,0.0000,28.1091,0.0488
496.8500,0.6874,-0.0008,0.0000,28.1087,0.0488
496.8600,0.6874,-0.0008,0.0000,28.1082,0.0488
496.8700,0.6874,-0.0008,0.0000,28.1077,0.0488
496.8800,0.6874,-0.0008,0.0000,28.1072,0.0488
496.8900,0.6874,-0.0008,0.0000,28.1067,0.0488
496.9000,0.6874,-0.0008,0.0000,28.1062,0.0488
496.9100,0.6874,-0.0008,0.0000,28.1057,0.0488
496.9200,0.6874,-0.0008,0.0000,28.1052,0.0488
496.9300,0.6874,-0.0008,0.0000,28.1047,0.0488
496.9400,0.6874,-0.0008,0.0000,28.1043,0.0488
496.9500,0.6874,-0.0008,0.0000,28.1038,0.0488
496.9600,0.6874,-0.0008,0.0000,28.1033,0.0488
496.9700,0.6874,-0.0008,0.0000,28.1028,0.0488
496.9800,0.6874,-0.0008,0.0000,28.1023,0.0488
496.9900,0.6874,-0.0008,0.0000,28.1018,0.0488
497.0000,0.6874,-0.0008,0.0000,28.1013,0.0488
497.0100,0.6874,-0.0008,0.0000,28.1008,0.0488
497.0200,0.6874,-0.0008,0.0000,28.1004,0.0488
497.0300,0.6609,-0.0273,0.0000,28.0999,0.0488
497.0400,0.6609,-0.0273,0.0000,28.0993,0.0542
497.0500,0.6609,-0.0273,0.0000,28.0986,0.0769
497.0600,0.6609,-0.0273,0.0000,28.0975,0.1013
497.0700,0.6609,-0.0273,0.0000,28.0963,0.1257
497.0800,0.6609,-0.0273,0.0000,28.0948,0.1480
497.0900,0.6609,-0.0273,0.0000,28.0931,0.1690
497.1000,0.6609,-0.0273,0.0000,28.0912,0.1888
497.1100,0.6609,-0.0273,0.0000,28.0892,0.2075
497.1200,0.6609,-0.0273,0.0000,28.0869,0.2253
497.1300,0.6609,-0.0273,0.0000,28.0845,0.2417
497.1400,0.6609,-0.0273,0.0000,28.0819,0.2571
497.1500,0.6609,-0.0273,0.0000,28.0792,0.2716
497.1600,0.6609,-0.0273,0.0000,28.0763,0.2855
497.1700,0.6609,-0.0273,0.0000,28.0734,0.2977
497.1800,0.6609,-0.0273,0.0000,28.0703,0.3084
497.1900,0.6609,-0.0273,0.0000,28.0671,0.3189
497.2000,0.6609,-0.0273,0.0000,28.0638,0.3290
497.2100,0.6609,-0.0273,0.0000,28.0604,0.3386
497.2200,0.6609,-0.0273,0.0000,28.0569,0.3479
497.2300,0.6609,-0.0273,0.0000,28.0534,0.3571
497.2400,0.6609,-0.0273,0.0000,28.0497,0.3649
497.2500,0.6609,-0.0273,0.0000,28.0460,0.3723
497.2600,0.6609,-0.0273,0.0000,28.0422,0.3794
497.2700,0.6609,-0.0273,0.0000,28.0383,0.3862
497.2800,0.6609,-0.0273,0.0000,28.0344,0.3927
497.2900,0.6609,-0.0273,0.0000,28.0304,0.3973
497.3000,0.6609,-0.0273,0.0000,28.0264,0.4032
497.3100,0.6609,-0.0273,0.0000,28.0223,0.4084
497.3200,0.6609,-0.0273,0.0000,28.0182,0.4139
497.3300,0.6609,-0.0273,0.0000,28.0140,0.4181
497.3400,0.6609,-0.0273,0.0000,28.0098,0.4227
497.3500,0.6609,-0.0273,0.0000,28.0055,0.4263
497.3600,0.6609,-0.0273,0.0000,28.0012,0.4305
497.3700,0.6609,-0.0273,0.0000,27.9969,0.4335
497.3800,0.6609,-0.0273,0.0000,27.9925,0.4366
497.3900,0.6609,-0.0273,0.0000,27.9881,0.4396
497.4000,0.6609,-0.0273,0.0000,27.9837,0.4423
497.4100,0.6609,-0.0273,0.0000,27.9792,0.4448
497.4200,0.6609,-0.0273,0.0000,27.9748,0.4469
497.4300,0.6609,-0.0273,0.0000,27.9703,0.4492
497.4400,0.6609,-0.0273,0.0000,27.9658,0.4511
497.4500,0.6609,-0.0273,0.0000,27.9612,0.4526
497.4600,0.6609,-0.0273,0.0000,27.9567,0.4541
497.4700,0.6609,-0.0273,0.0000,27.9521,0.4560
497.4800,0.6609,-0.0273,0.0000,27.9476,0.4566
497.4900,0.6609,-0.0273,0.0000,27.9430,0.4589
497.5000,0.6609,-0.0273,0.0000,27.9384,0.4591
497.5100,0.6609,-0.0273,0.0000,27.9338,0.4606
497.5200,0.6609,-0.0273,0.0000,27.9292,0.4614
497.5300,0.6609,-0.0273,0.0000,27.9246,0.4614
497.5400,0.6609,-0.0273,0.0000,27.9200,0.4530
497.5500,0.6609,-0.0273,0.0000,27.9155,0.4492
497.5600,0.6609,-0.0273,0.0000,27.9111,0.4467
497.5700,0.6609,-0.0273,0.0000,27.9066,0.4469
497.5800,0.6609,-0.0273,0.0000,27.9021,0.4467
497.5900,0.6609,-0.0273,0.0000,27.8977,0.4469
497.6000,0.6609,-0.0273,0.0000,27.8932,0.4467
497.6100,0.6609,-0.0273,0.0000,27.8887,0.4467
497.6200,0.6609,-0.0273,0.0000,27.8843,0.4469
497.6300,0.6609,-0.0273,0.0000,27.8798,0.4467
497.6400,0.6609,-0.0273,0.0000,27.8753,0.4469
497.6500,0.6609,-0.0273,0.0000,27.8709,0.4408
497.6600,0.6609,-0.0273,0.0000,27.8665,0.4436
497.6700,0.6609,-0.0273,0.0000,27.8620,0.4456
497.6800,0.6609,-0.0273,0.0000,27.8576,0.4469
497.6900,0.6609,-0.0273,0.0000,27.8531,0.4471
497.7000,0.6609,-0.0273,0.0000,27.8486,0.4494
497.7100,0.6609,-0.0273,0.0000,27.8441,0.4492
497.7200,0.6609,-0.0273,0.0000,27.8396,0.4492
497.7300,0.6609,-0.0273,0.0000,27.8351,0.4492
497.7400,0.6609,-0.0273,0.0000,27.8306,0.4492
497.7500,0.6609,-0.0273,0.0000,27.8261,0.4494
497.7600,0.6609,-0.0273,0.0000,27.8216,0.4492
497.7700,0.6609,-0.0273,0.0000,27.8172,0.4484
497.7800,0.6609,-0.0273,0.0000,27.8127,0.4469
497.7900,0.6609,-0.0273,0.0000,27.8084,0.4290
497.8000,0.6609,-0.0273,0.0000,27.8042,0.4217
497.8100,0.6609,-0.0273,0.0000,27.8000,0.4171
497.8200,0.6609,-0.0273,0.0000,27.7959,0.4133
497.8300,0.6609,-0.0273,0.0000,27.7918,0.4107
497.8400,0.6609,-0.0273,0.0000,27.7877,0.4082
497.8500,0.6609,-0.0273,0.0000,27.7836,0.4053
497.8600,0.6609,-0.0273,0.0000,27.7796,0.4032
497.8700,0.6609,-0.0273,0.0000,27.7756,0.4028
497.8800,0.6609,-0.0273,0.0000,27.7715,0.4028
497.8900,0.6609,-0.0273,0.0000,27.7675,0.4011
497.9000,0.6609,-0.0273,0.0000,27.7636,0.3937
497.9100,0.6609,-0.0273,0.0000,27.7596,0.3984
497.9200,0.6609,-0.0273,0.0000,27.7556,0.4007
497.9300,0.6609,-0.0273,0.0000,27.7516,0.4028
497.9400,0.6609,-0.0273,0.0000,27.7475,0.4038
497.9500,0.6609,-0.0273,0.0000,27.7435,0.4053
497.9600,0.6609,-0.0273,0.0000,27.7394,0.4053
497.9700,0.6609,-0.0273,0.0000,27.7354,0.4053
497.9800,0.6609,-0.0273,0.0000,27.7313,0.4053
497.9900,0.6609,-0.0273,0.0000,27.7273,0.4047
498.0000,0.6609,-0.0273,0.0000,27.7232,0.4028
498.0100,0.6609,-0.0273,0.0000,27.7192,0.4028
498.0200,0.6609,-0.0273,0.0000,27.7152,0.4028
498.0300,0.6609,-0.0273,0.0000,27.7112,0.4015
498.0400,0.6609,-0.0273,0.0000,27.7073,0.3876
498.0500,0.6609,-0.0273,0.0000,27.7035,0.3794
498.0600,0.6609,-0.0273,0.0000,27.6998,0.3738
498.0700,0.6609,-0.0273,0.0000,27.6961,0.3693
498.0800,0.6609,-0.0273,0.0000,27.6924,0.3660
498.0900,0.6609,-0.0273,0.0000,27.6888,0.3633
498.1000,0.6609,-0.0273,0.0000,27.6852,0.3613
498.1100,0.6609,-0.0273,0.0000,27.6816,0.3592
498.1200,0.6609,-0.0273,0.0000,27.6780,0.3590
498.1300,0.6609,-0.0273,0.0000,27.6744,0.3571
498.1400,0.6609,-0.0273,0.0000,27.6709,0.3565
498.1500,0.6609,-0.0273,0.0000,27.6673,0.3515
498.1600,0.6609,-0.0273,0.0000,27.6638,0.3555
498.1700,0.6609,-0.0273,0.0000,27.6602,0.3571
498.1800,0.6609,-0.0273,0.0000,27.6566,0.3590
498.1900,0.6609,-0.0273,0.0000,27.6530,0.3590
498.2000,0.6609,-0.0273,0.0000,27.6494,0.3588
498.2100,0.6609,-0.0273,0.0000,27.6459,0.3590
498.2200,0.6609,-0.0273,0.0000,27.6423,0.3588
498.2300,0.6609,-0.0273,0.0000,27.6387,0.3590
498.2400,0.6609,-0.0273,0.0000,27.6351,0.3574
498.2500,0.6609,-0.0273,0.0000,27.6315,0.3565
498.2600,0.6609,-0.0273,0.0000,27.6280,0.3565
498.2700,0.6609,-0.0273,0.0000,27.6244,0.3551
498.2800,0.6609,-0.0273,0.0000,27.6209,0.3540
498.2900,0.6609,-0.0273,0.0000,27.6174,0.3462
498.3000,0.6609,-0.0273,0.0000,27.6140,0.3374
498.3100,0.6609,-0.0273,0.0000,27.6107,0.3305
498.3200,0.6609,-0.0273,0.0000,27.6075,0.3254
498.3300,0.6609,-0.0273,0.0000,27.6043,0.3214
498.3400,0.6609,-0.0273,0.0000,27.6011,0.3183
498.3500,0.6609,-0.0273,0.0000,27.5979,0.3157
498.3600,0.6609,-0.0273,0.0000,27.5948,0.3138
498.3700,0.6609,-0.0273,0.0000,27.5917,0.3124
498.3800,0.6609,-0.0273,0.0000,27.5886,0.3113
498.3900,0.6609,-0.0273,0.0000,27.5855,0.3101
498.4000,0.6609,-0.0273,0.0000,27.5824,0.3082
498.4100,0.6609,-0.0273,0.0000,27.5793,0.3117
498.4200,0.6609,-0.0273,0.0000,27.5761,0.3126
498.4300,0.6609,-0.0273,0.0000,27.5730,0.3143
498.4400,0.6609,-0.0273,0.0000,27.5698,0.3149
498.4500,0.6609,-0.0273,0.0000,27.5667,0.3149
498.4600,0.6609,-0.0273,0.0000,27.5636,0.3136
498.4700,0.6609,-0.0273,0.0000,27.5604,0.3126
498.4800,0.6609,-0.0273,0.0000,27.5573,0.3126
498.4900,0.6609,-0.0273,0.0000,27.5542,0.3122
498.5000,0.6609,-0.0273,0.0000,27.5511,0.3099
498.5100,0.6609,-0.0273,0.0000,27.5480,0.3101
498.5200,0.6609,-0.0273,0.0000,27.5449,0.3086
498.5300,0.6609,-0.0273,0.0000,27.5418,0.3077
498.5400,0.6609,-0.0273,0.0000,27.5388,0.3054
498.5500,0.6609,-0.0273,0.0000,27.5358,0.3000
498.5600,0.6609,-0.0273,0.0000,27.5328,0.2964
498.5700,0.6609,-0.0273,0.0000,27.5299,0.2935
498.5800,0.6609,-0.0273,0.0000,27.5270,0.2903
498.5900,0.6609,-0.0273,0.0000,27.5241,0.2880
498.6000,0.6609,-0.0273,0.0000,27.5212,0.2863
498.6100,0.6609,-0.0273,0.0000,27.5184,0.2857
498.6200,0.6609,-0.0273,0.0000,27.5155,0.2832
498.6300,0.6609,-0.0273,0.0000,27.5127,0.2832
498.6400,0.6609,-0.0273,0.0000,27.5099,0.2825
498.6500,0.6609,-0.0273,0.0000,27.5071,0.2808
498.6600,0.6609,-0.0273,0.0000,27.5042,0.2831
498.6700,0.6609,-0.0273,0.0000,27.5014,0.2832
498.6800,0.6609,-0.0273,0.0000,27.4986,0.2832
498.6900,0.6609,-0.0273,0.0000,27.4957,0.2831
498.7000,0.6609,-0.0273,0.0000,27.4929,0.2831
498.7100,0.6609,-0.0273,0.0000,27.4901,0.2817
498.7200,0.6609,-0.0273,0.0000,27.4873,0.2808
498.7300,0.6609,-0.0273,0.0000,27.4845,0.2808
498.7400,0.6609,-0.0273,0.0000,27.4817,0.2806
498.7500,0.6609,-0.0273,0.0000,27.4789,0.2787
498.7600,0.6609,-0.0273,0.0000,27.4761,0.2783
498.7700,0.6609,-0.0273,0.0000,27.4733,0.2781
498.7800,0.6609,-0.0273,0.0000,27.4705,0.2768
498.7900,0.6609,-0.0273,0.0000,27.4678,0.2760
498.8000,0.6609,-0.0273,0.0000,27.4650,0.2758
498.8100,0.6609,-0.0273,0.0000,27.4623,0.2754
498.8200,0.6609,-0.0273,0.0000,27.4595,0.2737
498.8300,0.6609,-0.0273,0.0000,27.4568,0.2733
498.8400,0.6609,-0.0273,0.0000,27.4541,0.2735
498.8500,0.6609,-0.0273,0.0000,27.4513,0.2729
498.8600,0.6609,-0.0273,0.0000,27.4486,0.2710
498.8700,0.6609,-0.0273,0.0000,27.4459,0.2710
498.8800,0.6609,-0.0273,0.0000,27.4432,0.2708
498.8900,0.6609,-0.0273,0.0000,27.4405,0.2707
498.9000,0.6609,-0.0273,0.0000,27.4378,0.2665
498.9100,0.6609,-0.0273,0.0000,27.4352,0.2663
498.9200,0.6609,-0.0273,0.0000,27.4325,0.2661
498.9300,0.6609,-0.0273,0.0000,27.4299,0.2661
498.9400,0.6609,-0.0273,0.0000,27.4272,0.2659
498.9500,0.6609,-0.0273,0.0000,27.4055,2.1740
498.9600,0.6609,-0.0273,0.0000,27.4017,0.3731
498.9700,0.6609,-0.0273,0.0000,27.3992,0.2579
498.9800,0.6609,-0.0273,0.0000,27.3967,0.2457
498.9900,0.6609,-0.0273,0.0000,27.3943,0.2460
499.0000,0.6609,-0.0273,0.0000,27.3918,0.2480
499.0100,0.6609,-0.0273,0.0000,27.3893,0.2502
499.0200,0.6609,-0.0273,0.0000,27.3868,0.2518
499.0300,0.6609,-0.0273,0.0000,27.3842,0.2535
499.0400,0.6609,-0.0273,0.0000,27.3817,0.2539
499.0500,0.6609,-0.0273,0.0000,27.3791,0.2550
499.0600,0.6609,-0.0273,0.0000,27.3766,0.2563
499.0700,0.6609,-0.0273,0.0000,27.3740,0.2563
499.0800,0.6609,-0.0273,0.0000,27.3715,0.2563
499.0900,0.6609,-0.0273,0.0000,27.3689,0.2563
499.1000,0.6609,-0.0273,0.0000,27.3663,0.2563
499.1100,0.6609,-0.0273,0.0000,27.3638,0.2562
499.1200,0.6609,-0.0273,0.0000,27.3612,0.2554
499.1300,0.6609,-0.0273,0.0000,27.3587,0.2544
499.1400,0.6609,-0.0273,0.0000,27.3562,0.2541
499.1500,0.6609,-0.0273,0.0000,27.3536,0.2539
499.1600,0.6609,-0.0273,0.0000,27.3511,0.2541
499.1700,0.6609,-0.0273,0.0000,27.3486,0.2537
499.1800,0.6609,-0.0273,0.0000,27.3460,0.2523
499.1900,0.6609,-0.0273,0.0000,27.3435,0.2514
499.2000,0.6609,-0.0273,0.0000,27.3410,0.2516
499.2100,0.6609,-0.0273,0.0000,27.3385,0.2514
499.2200,0.6609,-0.0273,0.0000,27.3360,0.2510
499.2300,0.6609,-0.0273,0.0000,27.3335,0.2501
499.2400,0.6609,-0.0273,0.0000,27.3310,0.2489
499.2500,0.6609,-0.0273,0.0000,27.3285,0.2491
499.2600,0.6609,-0.0273,0.0000,27.3260,0.2491
499.2700,0.6609,-0.0273,0.0000,27.3236,0.2489
499.2800,0.6609,-0.0273,0.0000,27.3211,0.2481
499.2900,0.6609,-0.0273,0.0000,27.3186,0.2472
499.3000,0.6609,-0.0273,0.0000,27.3162,0.2466
499.3100,0.6609,-0.0273,0.0000,27.3137,0.2466
499.3200,0.6609,-0.0273,0.0000,27.3112,0.2466
499.3300,0.6609,-0.0273,0.0000,27.3088,0.2455
499.3400,0.6609,-0.0273,0.0000,27.3063,0.2441
499.3500,0.6609,-0.0273,0.0000,27.3039,0.2441
499.3600,0.6609,-0.0273,0.0000,27.3015,0.2441
499.3700,0.6609,-0.0273,0.0000,27.2990,0.2441
499.3800,0.6609,-0.0273,0.0000,27.2966,0.2439
499.3900,0.6609,-0.0273,0.0000,27.2942,0.2432
499.4000,0.6609,-0.0273,0.0000,27.2917,0.2417
499.4100,0.6609,-0.0273,0.0000,27.2893,0.2417
499.4200,0.6609,-0.0273,0.0000,27.2869,0.2419
499.4300,0.6609,-0.0273,0.0000,27.2845,0.2417
499.4400,0.6609,-0.0273,0.0000,27.2821,0.2407
499.4500,0.6609,-0.0273,0.0000,27.2797,0.2401
499.4600,0.6609,-0.0273,0.0000,27.2773,0.2396
499.4700,0.6609,-0.0273,0.0000,27.2749,0.2394
499.4800,0.6609,-0.0273,0.0000,27.2725,0.2392
499.4900,0.6609,-0.0273,0.0000,27.2701,0.2392
499.5000,0.6609,-0.0273,0.0000,27.2678,0.2384
499.5100,0.6609,-0.0273,0.0000,27.2654,0.2369
499.5200,0.6609,-0.0273,0.0000,27.2630,0.2369
499.5300,0.6609,-0.0273,0.0000,27.2607,0.2369
499.5400,0.6609,-0.0273,0.0000,27.2583,0.2367
499.5500,0.6609,-0.0273,0.0000,27.2559,0.2369
499.5600,0.6609,-0.0273,0.0000,27.2536,0.2361
499.5700,0.6609,-0.0273,0.0000,27.2512,0.2348
499.5800,0.6609,-0.0273,0.0000,27.2489,0.2344
499.5900,0.6609,-0.0273,0.0000,27.2465,0.2344
499.6000,0.6609,-0.0273,0.0000,27.2442,0.2342
499.6100,0.6609,-0.0273,0.0000,27.2418,0.2344
499.6200,0.6609,-0.0273,0.0000,27.2395,0.2338
499.6300,0.6609,-0.0273,0.0000,27.2372,0.2331
499.6400,0.6609,-0.0273,0.0000,27.2349,0.2321
499.6500,0.6609,-0.0273,0.0000,27.2325,0.2319
499.6600,0.6609,-0.0273,0.0000,27.2302,0.2319
499.6700,0.6609,-0.0273,0.0000,27.2279,0.2319
499.6800,0.6609,-0.0273,0.0000,27.2256,0.2317
499.6900,0.6609,-0.0273,0.0000,27.2233,0.2316
499.7000,0.6609,-0.0273,0.0000,27.2210,0.2310
499.7100,0.6609,-0.0273,0.0000,27.2187,0.2295
499.7200,0.6609,-0.0273,0.0000,27.2164,0.2296
499.7300,0.6609,-0.0273,0.0000,27.2141,0.2295
499.7400,0.6609,-0.0273,0.0000,27.2118,0.2295
499.7500,0.6609,-0.0273,0.0000,27.2095,0.2295
499.7600,0.6609,-0.0273,0.0000,27.2072,0.2295
499.7700,0.6609,-0.0273,0.0000,27.2049,0.2291
499.7800,0.6609,-0.0273,0.0000,27.2026,0.2274
499.7900,0.6609,-0.0273,0.0000,27.2004,0.2270
499.8000,0.6609,-0.0273,0.0000,27.1981,0.2270
499.8100,0.6609,-0.0273,0.0000,27.1958,0.2272
499.8200,0.6609,-0.0273,0.0000,27.1936,0.2270
499.8300,0.6609,-0.0273,0.0000,27.1913,0.2266
499.8400,0.6609,-0.0273,0.0000,27.1890,0.2251
499.8500,0.6609,-0.0273,0.0000,27.1868,0.2247
499.8600,0.6609,-0.0273,0.0000,27.1845,0.2245
499.8700,0.6609,-0.0273,0.0000,27.1823,0.2247
499.8800,0.6609,-0.0273,0.0000,27.1801,0.2247
499.8900,0.6609,-0.0273,0.0000,27.1778,0.2245
499.9000,0.6609,-0.0273,0.0000,27.1756,0.2239
499.9100,0.6609,-0.0273,0.0000,27.1733,0.2224
499.9200,0.6609,-0.0273,0.0000,27.1711,0.2222
499.9300,0.6609,-0.0273,0.0000,27.1689,0.2222
499.9400,0.6609,-0.0273,0.0000,27.1667,0.2222
499.9500,0.6609,-0.0273,0.0000,27.1645,0.2220
499.9600,0.6609,-0.0273,0.0000,27.1622,0.2220
499.9700,0.6609,-0.0273,0.0000,27.1600,0.2207
499.9800,0.6609,-0.0273,0.0000,27.1578,0.2197
499.9900,0.6609,-0.0273,0.0000,27.1556,0.2197
500.0000,0.6609,-0.0273,0.0000,27.1534,0.2197
500.0100,0.6609,-0.0273,0.0000,27.1512,0.2197
500.0200,0.6609,-0.0273,0.0000,27.1490,0.2197
500.0300,0.6609,-0.0273,0.0000,27.1469,0.2188
500.0400,0.6609,-0.0273,0.0000,27.1447,0.2174
500.0500,0.6609,-0.0273,0.0000,27.1425,0.2174
500.0600,0.6609,-0.0273,0.0000,27.1403,0.2172
500.0700,0.6609,-0.0273,0.0000,27.1382,0.2172
500.0800,0.6609,-0.0273,0.0000,27.1360,0.2172
500.0900,0.6609,-0.0273,0.0000,27.1338,0.2171
500.1000,0.6609,-0.0273,0.0000,27.1317,0.2153
500.1100,0.6609,-0.0273,0.0000,27.1295,0.2148
500.1200,0.6609,-0.0273,0.0000,27.1274,0.2150
500.1300,0.6609,-0.0273,0.0000,27.1252,0.2148
500.1400,0.6609,-0.0273,0.0000,27.1231,0.2150
500.1500,0.6609,-0.0273,0.0000,27.1209,0.2148
500.1600,0.6609,-0.0273,0.0000,27.1188,0.2144
500.1700,0.6609,-0.0273,0.0000,27.1167,0.2134
500.1800,0.6609,-0.0273,0.0000,27.1145,0.2123
500.1900,0.6609,-0.0273,0.0000,27.1124,0.2125
500.2000,0.6609,-0.0273,0.0000,27.1103,0.2123
500.2100,0.6609,-0.0273,0.0000,27.1082,0.2125
500.2200,0.6609,-0.0273,0.0000,27.1060,0.2125
500.2300,0.6609,-0.0273,0.0000,27.1039,0.2119
500.2400,0.6609,-0.0273,0.0000,27.1018,0.2104
500.2500,0.6609,-0.0273,0.0000,27.0997,0.2100
500.2600,0.6609,-0.0273,0.0000,27.0976,0.2100
500.2700,0.6609,-0.0273,0.0000,27.0955,0.2098
500.2800,0.6609,-0.0273,0.0000,27.0934,0.2100
500.2900,0.6609,-0.0273,0.0000,27.0913,0.2098
500.3000,0.6609,-0.0273,0.0000,27.0892,0.2068
500.3100,0.6609,-0.0273,0.0000,27.0872,0.2058
500.3200,0.6609,-0.0273,0.0000,27.0851,0.2050
500.3300,0.6609,-0.0273,0.0000,27.0831,0.2050
500.3400,0.6609,-0.0273,0.0000,27.0810,0.2050
500.3500,0.6609,-0.0273,0.0000,27.0790,0.2052
500.3600,0.6609,-0.0273,0.0000,27.0769,0.2050
500.3700,0.6609,-0.0273,0.0000,27.0749,0.2050
500.3800,0.6609,-0.0273,0.0000,27.0728,0.2041
500.3900,0.6609,-0.0273,0.0000,27.0708,0.2028
500.4000,0.6609,-0.0273,0.0000,27.0688,0.2026
500.4100,0.6609,-0.0273,0.0000,27.0668,0.2026
500.4200,0.6609,-0.0273,0.0000,27.0647,0.2028
500.4300,0.6609,-0.0273,0.0000,27.0627,0.2026
500.4400,0.6609,-0.0273,0.0000,27.0607,0.2028
500.4500,0.6609,-0.0273,0.0000,27.0587,0.2018
500.4600,0.6609,-0.0273,0.0000,27.0567,0.2005
500.4700,0.6609,-0.0273,0.0000,27.0547,0.2003
500.4800,0.6609,-0.0273,0.0000,27.0527,0.2001
500.4900,0.6609,-0.0273,0.0000,27.0507,0.2003
500.5000,0.6609,-0.0273,0.0000,27.0487,0.2001
500.5100,0.6609,-0.0273,0.0000,27.0467,0.2003
500.5200,0.6609,-0.0273,0.0000,27.0447,0.1999
500.5300,0.6609,-0.0273,0.0000,27.0427,0.1995
500.5400,0.6609,-0.0273,0.0000,27.0407,0.1980
500.5500,0.6609,-0.0273,0.0000,27.0387,0.1978
500.5600,0.6609,-0.0273,0.0000,27.0367,0.1978
500.5700,0.6609,-0.0273,0.0000,27.0347,0.1978
500.5800,0.6609,-0.0273,0.0000,27.0328,0.1976
500.5900,0.6609,-0.0273,0.0000,27.0308,0.1978
500.6000,0.6609,-0.0273,0.0000,27.0288,0.1976
500.6100,0.6609,-0.0273,0.0000,27.0268,0.1965
500.6200,0.6609,-0.0273,0.0000,27.0249,0.1955
500.6300,0.6609,-0.0273,0.0000,27.0229,0.1953
500.6400,0.6609,-0.0273,0.0000,27.0210,0.1953
500.6500,0.6609,-0.0273,0.0000,27.0190,0.1949
500.6600,0.6609,-0.0273,0.0000,27.0171,0.1926
500.6700,0.6609,-0.0273,0.0000,27.0152,0.1902
500.6800,0.6609,-0.0273,0.0000,27.0133,0.1865
500.6900,0.6609,-0.0273,0.0000,27.0116,0.1762
500.7000,0.6609,-0.0273,0.0000,27.0098,0.1738
500.7100,0.6609,-0.0273,0.0000,27.0081,0.1751
500.7200,0.6609,-0.0273,0.0000,27.0063,0.1741
500.7300,0.6609,-0.0273,0.0000,27.0047,0.1696
500.7400,0.6609,-0.0273,0.0000,27.0029,0.1732
500.7500,0.6609,-0.0273,0.0000,27.0012,0.1778
500.7600,0.6609,-0.0273,0.0000,26.9993,0.1818
500.7700,0.6609,-0.0273,0.0000,26.9975,0.1854
500.7800,0.6609,-0.0273,0.0000,26.9956,0.1911
500.7900,0.6609,-0.0273,0.0000,26.9936,0.1986
500.8000,0.6609,-0.0273,0.0000,26.9916,0.2024
500.8100,0.6609,-0.0273,0.0000,26.9896,0.1978
500.8200,0.6609,-0.0273,0.0000,26.9876,0.1999
500.8300,0.6609,-0.0273,0.0000,26.9855,0.2047
500.8400,0.6609,-0.0273,0.0000,26.9835,0.2018
500.8500,0.6609,-0.0273,0.0000,26.9816,0.1944
500.8600,0.6609,-0.0273,0.0000,26.9797,0.1913
500.8700,0.6609,-0.0273,0.0000,26.9778,0.1892
500.8800,0.6609,-0.0273,0.0000,26.9759,0.1881
500.8900,0.6609,-0.0273,0.0000,26.9740,0.1860
500.9000,0.6609,-0.0273,0.0000,26.9722,0.1856
500.9100,0.6609,-0.0273,0.0000,26.9703,0.1856
500.9200,0.6609,-0.0273,0.0000,26.9685,0.1842
500.9300,0.6609,-0.0273,0.0000,26.9667,0.1835
500.9400,0.6609,-0.0273,0.0000,26.9648,0.1831
500.9500,0.6609,-0.0273,0.0000,26.9630,0.1831
500.9600,0.6609,-0.0273,0.0000,26.9612,0.1831
500.9700,0.6609,-0.0273,0.0000,26.9593,0.1833
500.9800,0.6609,-0.0273,0.0000,26.9575,0.1854
500.9900,0.6609,-0.0273,0.0000,26.9557,0.1728
501.0000,0.6609,-0.0273,0.0000,26.9541,0.1644
501.0100,0.6609,-0.0273,0.0000,26.9525,0.1617
501.0200,0.6609,-0.0273,0.0000,26.9509,0.1562
501.0300,0.6609,-0.0273,0.0000,26.9493,0.1562
501.0400,0.6609,-0.0273,0.0000,26.9477,0.1612
501.0500,0.6609,-0.0273,0.0000,26.9460,0.1648
501.0600,0.6609,-0.0273,0.0000,26.9444,0.1675
501.0700,0.6609,-0.0273,0.0000,26.9427,0.1699
501.0800,0.6609,-0.0273,0.0000,26.9410,0.1703
501.0900,0.6609,-0.0273,0.0000,26.9391,0.1839
501.1000,0.6609,-0.0273,0.0000,26.9373,0.1856
501.1100,0.6609,-0.0273,0.0000,26.9354,0.1856
501.1200,0.6609,-0.0273,0.0000,26.9334,0.1951
501.1300,0.6609,-0.0273,0.0000,26.9316,0.1869
501.1400,0.6609,-0.0273,0.0000,26.9299,0.1677
501.1500,0.6609,-0.0273,0.0000,26.9283,0.1585
501.1600,0.6609,-0.0273,0.0000,26.9268,0.1528
501.1700,0.6609,-0.0273,0.0000,26.9253,0.1497
501.1800,0.6609,-0.0273,0.0000,26.9239,0.1448
501.1900,0.6609,-0.0273,0.0000,26.9224,0.1444
501.2000,0.6609,-0.0273,0.0000,26.9209,0.1488
501.2100,0.6609,-0.0273,0.0000,26.9194,0.1526
501.2200,0.6609,-0.0273,0.0000,26.9179,0.1556
501.2300,0.6609,-0.0273,0.0000,26.9162,0.1629
501.2400,0.6609,-0.0273,0.0000,26.9145,0.1724
501.2500,0.6609,-0.0273,0.0000,26.9128,0.1747
501.2600,0.6609,-0.0273,0.0000,26.9110,0.1757
501.2700,0.6609,-0.0273,0.0000,26.9093,0.1760
501.2800,0.6609,-0.0273,0.0000,26.9075,0.1783
501.2900,0.6609,-0.0273,0.0000,26.9057,0.1789
501.3000,0.6609,-0.0273,0.0000,26.9040,0.1694
501.3100,0.6609,-0.0273,0.0000,26.9024,0.1663
501.3200,0.6609,-0.0273,0.0000,26.9007,0.1638
501.3300,0.6609,-0.0273,0.0000,26.8991,0.1623
501.3400,0.6609,-0.0273,0.0000,26.8975,0.1612
501.3500,0.6609,-0.0273,0.0000,26.8959,0.1608
501.3600,0.6609,-0.0273,0.0000,26.8943,0.1587
501.3700,0.6609,-0.0273,0.0000,26.8927,0.1587
501.3800,0.6609,-0.0273,0.0000,26.8911,0.1587
501.3900,0.6609,-0.0273,0.0000,26.8895,0.1587
501.4000,0.6609,-0.0273,0.0000,26.8879,0.1587
501.4100,0.6609,-0.0273,0.0000,26.8864,0.1587
501.4200,0.6609,-0.0273,0.0000,26.8848,0.1587
501.4300,0.6609,-0.0273,0.0000,26.8832,0.1587
501.4400,0.6609,-0.0273,0.0000,26.8816,0.1585
501.4500,0.6609,-0.0273,0.0000,26.8800,0.1587
501.4600,0.6609,-0.0273,0.0000,26.8784,0.1587
501.4700,0.6609,-0.0273,0.0000,26.8768,0.1587
501.4800,0.6609,-0.0273,0.0000,26.8752,0.1585
501.4900,0.6609,-0.0273,0.0000,26.8737,0.1587
501.5000,0.6609,-0.0273,0.0000,26.8721,0.1577
501.5100,0.6609,-0.0273,0.0000,26.8705,0.1574
501.5200,0.6609,-0.0273,0.0000,26.8689,0.1566
501.5300,0.6609,-0.0273,0.0000,26.8674,0.1562
501.5400,0.6609,-0.0273,0.0000,26.8658,0.1562
501.5500,0.6609,-0.0273,0.0000,26.8643,0.1562
501.5600,0.6609,-0.0273,0.0000,26.8627,0.1562
501.5700,0.6609,-0.0273,0.0000,26.8611,0.1564
501.5800,0.6609,-0.0273,0.0000,26.8596,0.1562
501.5900,0.6609,-0.0273,0.0000,26.8580,0.1562
501.6000,0.6609,-0.0273,0.0000,26.8564,0.1562
501.6100,0.6609,-0.0273,0.0000,26.8549,0.1562
501.6200,0.6609,-0.0273,0.0000,26.8533,0.1564
501.6300,0.6609,-0.0273,0.0000,26.8518,0.1560
501.6400,0.6609,-0.0273,0.0000,26.8502,0.1547
501.6500,0.6609,-0.0273,0.0000,26.8487,0.1545
501.6600,0.6609,-0.0273,0.0000,26.8471,0.1541
501.6700,0.6609,-0.0273,0.0000,26.8456,0.1537
501.6800,0.6609,-0.0273,0.0000,26.8440,0.1539
501.6900,0.6609,-0.0273,0.0000,26.8425,0.1537
501.7000,0.6609,-0.0273,0.0000,26.8410,0.1539
501.7100,0.6609,-0.0273,0.0000,26.8394,0.1537
501.7200,0.6609,-0.0273,0.0000,26.8379,0.1537
501.7300,0.6609,-0.0273,0.0000,26.8364,0.1539
501.7400,0.6609,-0.0273,0.0000,26.8348,0.1534
501.7500,0.6609,-0.0273,0.0000,26.8333,0.1514
501.7600,0.6609,-0.0273,0.0000,26.8318,0.1514
501.7700,0.6609,-0.0273,0.0000,26.8303,0.1514
501.7800,0.6609,-0.0273,0.0000,26.8288,0.1513
501.7900,0.6609,-0.0273,0.0000,26.8273,0.1514
501.8000,0.6609,-0.0273,0.0000,26.8257,0.1513
501.8100,0.6609,-0.0273,0.0000,26.8242,0.1514
501.8200,0.6609,-0.0273,0.0000,26.8227,0.1514
501.8300,0.6609,-0.0273,0.0000,26.8212,0.1501
501.8400,0.6609,-0.0273,0.0000,26.8197,0.1490
501.8500,0.6609,-0.0273,0.0000,26.8183,0.1469
501.8600,0.6609,-0.0273,0.0000,26.8168,0.1465
501.8700,0.6609,-0.0273,0.0000,26.8153,0.1448
501.8800,0.6609,-0.0273,0.0000,26.8139,0.1440
501.8900,0.6609,-0.0273,0.0000,26.8125,0.1425
501.9000,0.6609,-0.0273,0.0000,26.8111,0.1411
501.9100,0.6609,-0.0273,0.0000,26.8097,0.1390
501.9200,0.6609,-0.0273,0.0000,26.8083,0.1383
501.9300,0.6609,-0.0273,0.0000,26.8069,0.1366
501.9400,0.6609,-0.0273,0.0000,26.8056,0.1366
501.9500,0.6609,-0.0273,0.0000,26.8042,0.1364
501.9600,0.6609,-0.0273,0.0000,26.8028,0.1368
501.9700,0.6609,-0.0273,0.0000,26.8015,0.1368
501.9800,0.6609,-0.0273,0.0000,26.8001,0.1366
501.9900,0.6609,-0.0273,0.0000,26.7987,0.1360
502.0000,0.6609,-0.0273,0.0000,26.7974,0.1362
502.0100,0.6609,-0.0273,0.0000,26.7960,0.1368
502.0200,0.6609,-0.0273,0.0000,26.7946,0.1366
502.0300,0.6609,-0.0273,0.0000,26.7933,0.1368
502.0400,0.6609,-0.0273,0.0000,26.7919,0.1368
502.0500,0.6609,-0.0273,0.0000,26.7905,0.1354
502.0600,0.6609,-0.0273,0.0000,26.7892,0.1343
502.0700,0.6609,-0.0273,0.0000,26.7878,0.1343
502.0800,0.6609,-0.0273,0.0000,26.7865,0.1343
502.0900,0.6609,-0.0273,0.0000,26.7852,0.1343
502.1000,0.6609,-0.0273,0.0000,26.7838,0.1343
502.1100,0.6609,-0.0273,0.0000,26.7825,0.1337
502.1200,0.6609,-0.0273,0.0000,26.7812,0.1320
502.1300,0.6609,-0.0273,0.0000,26.7798,0.1318
502.1400,0.6609,-0.0273,0.0000,26.7785,0.1318
502.1500,0.6609,-0.0273,0.0000,26.7772,0.1320
502.1600,0.6609,-0.0273,0.0000,26.7759,0.1318
502.1700,0.6609,-0.0273,0.0000,26.7746,0.1318
502.1800,0.6609,-0.0273,0.0000,26.7733,0.1307
502.1900,0.6609,-0.0273,0.0000,26.7720,0.1293
502.2000,0.6609,-0.0273,0.0000,26.7707,0.1295
502.2100,0.6609,-0.0273,0.0000,26.7688,0.1905
502.2200,0.6609,-0.0273,0.0000,26.7660,0.2825
502.2300,0.6609,-0.0273,0.0000,26.7637,0.2222
502.2400,0.6609,-0.0273,0.0000,26.7618,0.1944
502.2500,0.6609,-0.0273,0.0000,26.7602,0.1575
502.2600,0.6609,-0.0273,0.0000,26.7589,0.1274
502.2700,0.6609,-0.0273,0.0000,26.7579,0.1041
502.2800,0.6609,-0.0273,0.0000,26.7570,0.0854
502.2900,0.6609,-0.0273,0.0000,26.7563,0.0706
502.3000,0.6609,-0.0273,0.0000,26.7557,0.0591
502.3100,0.6609,-0.0273,0.0000,26.7552,0.0500
502.3200,0.6609,-0.0273,0.0000,26.7546,0.0633
502.3300,0.6609,-0.0273,0.0000,26.7536,0.0996
502.3400,0.6609,-0.0273,0.0000,26.7530,0.0628
502.3500,0.6609,-0.0273,0.0000,26.7523,0.0734
502.3600,0.6609,-0.0273,0.0000,26.7511,0.1141
502.3700,0.6609,-0.0273,0.0000,26.7497,0.1436
502.3800,0.6609,-0.0273,0.0000,26.7484,0.1303
502.3900,0.6609,-0.0273,0.0000,26.7470,0.1404
502.4000,0.6609,-0.0273,0.0000,26.7457,0.1238
502.4100,0.6609,-0.0273,0.0000,26.7447,0.1057
502.4200,0.6609,-0.0273,0.0000,26.7435,0.1137
502.4300,0.6609,-0.0273,0.0000,26.7427,0.0872
502.4400,0.6609,-0.0273,0.0000,26.7420,0.0668
502.4500,0.6609,-0.0273,0.0000,26.7415,0.0494
502.4600,0.6609,-0.0273,0.0000,26.7412,0.0351
502.4700,0.6609,-0.0273,0.0000,26.7408,0.0322
502.4800,0.6609,-0.0273,0.0000,26.7407,0.0183
502.4900,0.6609,-0.0273,0.0000,26.7409,-0.0195
502.5000,0.6609,-0.0273,0.0000,26.7409,0.0004
502.5100,0.6609,-0.0273,0.0000,26.7408,0.0099
502.5200,0.6609,-0.0273,0.0000,26.7407,0.0082
502.5300,0.6609,-0.0273,0.0000,26.7404,0.0240
502.5400,0.6609,-0.0273,0.0000,26.7400,0.0381
502.5500,0.6609,-0.0273,0.0000,26.7397,0.0362
502.5600,0.6609,-0.0273,0.0000,26.7393,0.0402
502.5700,0.6609,-0.0273,0.0000,26.7390,0.0259
502.5800,0.6609,-0.0273,0.0000,26.7389,0.0097
502.5900,0.6609,-0.0273,0.0000,26.7390,-0.0036
502.6000,0.6609,-0.0273,0.0000,26.7390,-0.0088
502.6100,0.6609,-0.0273,0.0000,26.7392,-0.0130
502.6200,0.6609,-0.0273,0.0000,26.7394,-0.0271
502.6300,0.6609,-0.0273,0.0000,26.7397,-0.0275
502.6400,0.6609,-0.0273,0.0000,26.7401,-0.0376
502.6500,0.6609,-0.0273,0.0000,26.7405,-0.0439
502.6600,0.6609,-0.0273,0.0000,26.7410,-0.0469
502.6700,0.6609,-0.0273,0.0000,26.7416,-0.0584
502.6800,0.6609,-0.0273,0.0000,26.7421,-0.0498
502.6900,0.6609,-0.0273,0.0000,26.7426,-0.0509
502.7000,0.6609,-0.0273,0.0000,26.7432,-0.0650
502.7100,0.6609,-0.0273,0.0000,26.7439,-0.0656
502.7200,0.6609,-0.0273,0.0000,26.7444,-0.0486
502.7300,0.6609,-0.0273,0.0000,26.7448,-0.0460
502.7400,0.6609,-0.0273,0.0000,26.7452,-0.0389
502.7500,0.6609,-0.0273,0.0000,26.7455,-0.0315
502.7600,0.6609,-0.0273,0.0000,26.7459,-0.0320
502.7700,0.6609,-0.0273,0.0000,26.7462,-0.0338
502.7800,0.6609,-0.0273,0.0000,26.7467,-0.0525
502.7900,0.6609,-0.0273,0.0000,26.7473,-0.0555
502.8000,0.6609,-0.0273,0.0000,26.7478,-0.0566
502.8100,0.6609,-0.0273,0.0000,26.7485,-0.0637
502.8200,0.6609,-0.0273,0.0000,26.7492,-0.0759
502.8300,0.6609,-0.0273,0.0000,26.7500,-0.0769
502.8400,0.6609,-0.0273,0.0000,26.7508,-0.0761
502.8500,0.6609,-0.0273,0.0000,26.7515,-0.0755
502.8600,0.6609,-0.0273,0.0000,26.7523,-0.0746
502.8700,0.6609,-0.0273,0.0000,26.7530,-0.0732
502.8800,0.6609,-0.0273,0.0000,26.7537,-0.0723
502.8900,0.6609,-0.0273,0.0000,26.7544,-0.0704
502.9000,0.6609,-0.0273,0.0000,26.7551,-0.0696
502.9100,0.6609,-0.0273,0.0000,26.7558,-0.0681
502.9200,0.6609,-0.0273,0.0000,26.7565,-0.0671
502.9300,0.6609,-0.0273,0.0000,26.7569,-0.0385
502.9400,0.6609,-0.0273,0.0000,26.7570,-0.0154
502.9500,0.6609,-0.0273,0.0000,26.7574,-0.0360
502.9600,0.6609,-0.0273,0.0000,26.7579,-0.0532
502.9700,0.6609,-0.0273,0.0000,26.7586,-0.0669
502.9800,0.6609,-0.0273,0.0000,26.7594,-0.0769
502.9900,0.6609,-0.0273,0.0000,26.7602,-0.0862
503.0000,0.6609,-0.0273,0.0000,26.7611,-0.0925
503.0100,0.6609,-0.0273,0.0000,26.7621,-0.0982
503.0200,0.6609,-0.0273,0.0000,26.7632,-0.1030
503.0300,0.6609,-0.0273,0.0000,26.7642,-0.1055
503.0400,0.6609,-0.0273,0.0000,26.7652,-0.0967
503.0500,0.6609,-0.0273,0.0000,26.7657,-0.0511
503.0600,0.6609,-0.0273,0.0000,26.7662,-0.0549
503.0700,0.6609,-0.0273,0.0000,26.7668,-0.0597
503.0800,0.6609,-0.0273,0.0000,26.7675,-0.0648
503.0900,0.6609,-0.0273,0.0000,26.7682,-0.0696
503.1000,0.6609,-0.0273,0.0000,26.7689,-0.0742
503.1100,0.6609,-0.0273,0.0000,26.7697,-0.0786
503.1200,0.6609,-0.0273,0.0000,26.7705,-0.0835
503.1300,0.6609,-0.0273,0.0000,26.7714,-0.0864
503.1400,0.6609,-0.0273,0.0000,26.7723,-0.0898
503.1500,0.6609,-0.0273,0.0000,26.7732,-0.0931
503.1600,0.6609,-0.0273,0.0000,26.7742,-0.0957
503.1700,0.6609,-0.0273,0.0000,26.7752,-0.0980
503.1800,0.6609,-0.0273,0.0000,26.7762,-0.1001
503.1900,0.6609,-0.0273,0.0000,26.7772,-0.1020
503.2000,0.6609,-0.0273,0.0000,26.7782,-0.1045
503.2100,0.6609,-0.0273,0.0000,26.7793,-0.1055
503.2200,0.6609,-0.0273,0.0000,26.7804,-0.1072
503.2300,0.6609,-0.0273,0.0000,26.7815,-0.1083
503.2400,0.6609,-0.0273,0.0000,26.7826,-0.1095
503.2500,0.6609,-0.0273,0.0000,26.7836,-0.1093
503.2600,0.6609,-0.0273,0.0000,26.7847,-0.1101
503.2700,0.6609,-0.0273,0.0000,26.7858,-0.1102
503.2800,0.6609,-0.0273,0.0000,26.7870,-0.1110
503.2900,0.6609,-0.0273,0.0000,26.7881,-0.1114
503.3000,0.6609,-0.0273,0.0000,26.7892,-0.1120
503.3100,0.6609,-0.0273,0.0000,26.7903,-0.1116
503.3200,0.6609,-0.0273,0.0000,26.7914,-0.1122
503.3300,0.6609,-0.0273,0.0000,26.7925,-0.1118
503.3400,0.6609,-0.0273,0.0000,26.7937,-0.1118
503.3500,0.6609,-0.0273,0.0000,26.7948,-0.1112
503.3600,0.6609,-0.0273,0.0000,26.7959,-0.1112
503.3700,0.6609,-0.0273,0.0000,26.7970,-0.1108
503.3800,0.6609,-0.0273,0.0000,26.7981,-0.1114
503.3900,0.6609,-0.0273,0.0000,26.7992,-0.1110
503.4000,0.6609,-0.0273,0.0000,26.8003,-0.1110
503.4100,0.6609,-0.0273,0.0000,26.8014,-0.1104
503.4200,0.6609,-0.0273,0.0000,26.8025,-0.1104
503.4300,0.6609,-0.0273,0.0000,26.8036,-0.1099
503.4400,0.6609,-0.0273,0.0000,26.8047,-0.1093
503.4500,0.6609,-0.0273,0.0000,26.8058,-0.1095
503.4600,0.6609,-0.0273,0.0000,26.8069,-0.1091
503.4700,0.6609,-0.0273,0.0000,26.8080,-0.1089
503.4800,0.6609,-0.0273,0.0000,26.8091,-0.1085
503.4900,0.6609,-0.0273,0.0000,26.8102,-0.1089
503.5000,0.6609,-0.0273,0.0000,26.8113,-0.1081
503.5100,0.6609,-0.0273,0.0000,26.8123,-0.1080
503.5200,0.6609,-0.0273,0.0000,26.8134,-0.1074
503.5300,0.6609,-0.0273,0.0000,26.8145,-0.1076
503.5400,0.6609,-0.0273,0.0000,26.8156,-0.1074
503.5500,0.6609,-0.0273,0.0000,26.8166,-0.1068
503.5600,0.6609,-0.0273,0.0000,26.8177,-0.1072
503.5700,0.6609,-0.0273,0.0000,26.8188,-0.1062
503.5800,0.6609,-0.0273,0.0000,26.8198,-0.1064
503.5900,0.6609,-0.0273,0.0000,26.8209,-0.1055
503.6000,0.6609,-0.0273,0.0000,26.8219,-0.1053
503.6100,0.6609,-0.0273,0.0000,26.8230,-0.1053
503.6200,0.6609,-0.0273,0.0000,26.8240,-0.1051
503.6300,0.6609,-0.0273,0.0000,26.8251,-0.1047
503.6400,0.6609,-0.0273,0.0000,26.8261,-0.1047
503.6500,0.6609,-0.0273,0.0000,26.8272,-0.1049
503.6600,0.6609,-0.0273,0.0000,26.8282,-0.1043
503.6700,0.6609,-0.0273,0.0000,26.8293,-0.1045
503.6800,0.6609,-0.0273,0.0000,26.8303,-0.1041
503.6900,0.6609,-0.0273,0.0000,26.8314,-0.1034
503.7000,0.6609,-0.0273,0.0000,26.8324,-0.1030
503.7100,0.6609,-0.0273,0.0000,26.8334,-0.1032
503.7200,0.6609,-0.0273,0.0000,26.8344,-0.1024
503.7300,0.6609,-0.0273,0.0000,26.8355,-0.1026
503.7400,0.6609,-0.0273,0.0000,26.8365,-0.1028
503.7500,0.6609,-0.0273,0.0000,26.8375,-0.1024
503.7600,0.6609,-0.0273,0.0000,26.8385,-0.1024
503.7700,0.6609,-0.0273,0.0000,26.8396,-0.1024
503.7800,0.6609,-0.0273,0.0000,26.8406,-0.1020
503.7900,0.6609,-0.0273,0.0000,26.8416,-0.1020
503.8000,0.6609,-0.0273,0.0000,26.8426,-0.1011
503.8100,0.6609,-0.0273,0.0000,26.8436,-0.1013
503.8200,0.6609,-0.0273,0.0000,26.8446,-0.1007
503.8300,0.6609,-0.0273,0.0000,26.8456,-0.1003
503.8400,0.6609,-0.0273,0.0000,26.8466,-0.1001
503.8500,0.6609,-0.0273,0.0000,26.8476,-0.1003
503.8600,0.6609,-0.0273,0.0000,26.8486,-0.0999
503.8700,0.6609,-0.0273,0.0000,26.8496,-0.1001
503.8800,0.6609,-0.0273,0.0000,26.8506,-0.1001
503.8900,0.6609,-0.0273,0.0000,26.8516,-0.0996
503.9000,0.6609,-0.0273,0.0000,26.8526,-0.0999
503.9100,0.6609,-0.0273,0.0000,26.8536,-0.0988
503.9200,0.6609,-0.0273,0.0000,26.8546,-0.0994
503.9300,0.6609,-0.0273,0.0000,26.8556,-0.0996
503.9400,0.6609,-0.0273,0.0000,26.8566,-0.0992
503.9500,0.6609,-0.0273,0.0000,26.8576,-0.0990
503.9600,0.6609,-0.0273,0.0000,26.8586,-0.0982
503.9700,0.6609,-0.0273,0.0000,26.8596,-0.0986
503.9800,0.6609,-0.0273,0.0000,26.8606,-0.0982
503.9900,0.6609,-0.0273,0.0000,26.8615,-0.0978
504.0000,0.6609,-0.0273,0.0000,26.8625,-0.0977
504.0100,0.6609,-0.0273,0.0000,26.8635,-0.0977
504.0200,0.6609,-0.0273,0.0000,26.8645,-0.0977
504.0300,0.6609,-0.0273,0.0000,26.8654,-0.0977
504.0400,0.6609,-0.0273,0.0000,26.8664,-0.0973
504.0500,0.6609,-0.0273,0.0000,26.8674,-0.0973
504.0600,0.6609,-0.0273,0.0000,26.8684,-0.0975
504.0700,0.6609,-0.0273,0.0000,26.8693,-0.0975
504.0800,0.6609,-0.0273,0.0000,26.8703,-0.0965
504.0900,0.6609,-0.0273,0.0000,26.8713,-0.0965
504.1000,0.6609,-0.0273,0.0000,26.8722,-0.0954
504.1100,0.6609,-0.0273,0.0000,26.8732,-0.0952
504.1200,0.6609,-0.0273,0.0000,26.8741,-0.0957
504.1300,0.6609,-0.0273,0.0000,26.8751,-0.0954
504.1400,0.6609,-0.0273,0.0000,26.8760,-0.0956
504.1500,0.6609,-0.0273,0.0000,26.8770,-0.0952
504.1600,0.6609,-0.0273,0.0000,26.8779,-0.0952
504.1700,0.6609,-0.0273,0.0000,26.8789,-0.0952
504.1800,0.6609,-0.0273,0.0000,26.8798,-0.0952
504.1900,0.6609,-0.0273,0.0000,26.8808,-0.0954
504.2000,0.6609,-0.0273,0.0000,26.8817,-0.0948
504.2100,0.6609,-0.0273,0.0000,26.8827,-0.0948
504.2200,0.6609,-0.0273,0.0000,26.8836,-0.0944
504.2300,0.6609,-0.0273,0.0000,26.8846,-0.0946
504.2400,0.6609,-0.0273,0.0000,26.8855,-0.0935
504.2500,0.6609,-0.0273,0.0000,26.8864,-0.0927
504.2600,0.6609,-0.0273,0.0000,26.8874,-0.0929
504.2700,0.6609,-0.0273,0.0000,26.8883,-0.0927
504.2800,0.6609,-0.0273,0.0000,26.8892,-0.0929
504.2900,0.6609,-0.0273,0.0000,26.8902,-0.0927
504.3000,0.6609,-0.0273,0.0000,26.8911,-0.0925
504.3100,0.6609,-0.0273,0.0000,26.8920,-0.0929
504.3200,0.6609,-0.0273,0.0000,26.8929,-0.0921
504.3300,0.6609,-0.0273,0.0000,26.8939,-0.0927
504.3400,0.6609,-0.0273,0.0000,26.8948,-0.0927
504.3500,0.6609,-0.0273,0.0000,26.8957,-0.0923
504.3600,0.6609,-0.0273,0.0000,26.8966,-0.0927
504.3700,0.6609,-0.0273,0.0000,26.8975,-0.0917
504.3800,0.6609,-0.0273,0.0000,26.8985,-0.0921
504.3900,0.6609,-0.0273,0.0000,26.8994,-0.0921
504.4000,0.6609,-0.0273,0.0000,26.9003,-0.0917
504.4100,0.6609,-0.0273,0.0000,26.9012,-0.0914
504.4200,0.6609,-0.0273,0.0000,26.9021,-0.0916
504.4300,0.6609,-0.0273,0.0000,26.9030,-0.0908
504.4400,0.6609,-0.0273,0.0000,26.9040,-0.0908
504.4500,0.6609,-0.0273,0.0000,26.9049,-0.0902
504.4600,0.6609,-0.0273,0.0000,26.9058,-0.0904
504.4700,0.6609,-0.0273,0.0000,26.9067,-0.0904
504.4800,0.6609,-0.0273,0.0000,26.9076,-0.0898
504.4900,0.6609,-0.0273,0.0000,26.9085,-0.0898
504.5000,0.6609,-0.0273,0.0000,26.9094,-0.0900
504.5100,0.6609,-0.0273,0.0000,26.9103,-0.0900
504.5200,0.6609,-0.0273,0.0000,26.9112,-0.0898
504.5300,0.6777,-0.0105,0.0000,26.9121,-0.0898
504.5400,0.6777,-0.0105,0.0000,26.9130,-0.0893
504.5500,0.6777,-0.0105,0.0000,26.9139,-0.0925
504.5600,0.6777,-0.0105,0.0000,26.9149,-0.1062
504.5700,0.6777,-0.0105,0.0000,26.9162,-0.1221
504.5800,0.6777,-0.0105,0.0000,26.9175,-0.1369
504.5900,0.6777,-0.0105,0.0000,26.9190,-0.1505
504.6000,0.6777,-0.0105,0.0000,26.9207,-0.1642
504.6100,0.6777,-0.0105,0.0000,26.9224,-0.1764
504.6200,0.6777,-0.0105,0.0000,26.9243,-0.1886
504.6300,0.6777,-0.0105,0.0000,26.9263,-0.1986
504.6400,0.6777,-0.0105,0.0000,26.9284,-0.2085
504.6500,0.6777,-0.0105,0.0000,26.9306,-0.2184
504.6600,0.6777,-0.0105,0.0000,26.9329,-0.2272
504.6700,0.6777,-0.0105,0.0000,26.9352,-0.2359
504.6800,0.6777,-0.0105,0.0000,26.9377,-0.2438
504.6900,0.6777,-0.0105,0.0000,26.9402,-0.2516
504.7000,0.6777,-0.0105,0.0000,26.9427,-0.2581
504.7100,0.6777,-0.0105,0.0000,26.9454,-0.2642
504.7200,0.6777,-0.0105,0.0000,26.9481,-0.2703
504.7300,0.6777,-0.0105,0.0000,26.9508,-0.2758
504.7400,0.6777,-0.0105,0.0000,26.9537,-0.2813
504.7500,0.6777,-0.0105,0.0000,26.9565,-0.2861
504.7600,0.6777,-0.0105,0.0000,26.9594,-0.2911
504.7700,0.6777,-0.0105,0.0000,26.9624,-0.2956
504.7800,0.6777,-0.0105,0.0000,26.9654,-0.2991
504.7900,0.6777,-0.0105,0.0000,26.9684,-0.3025
504.8000,0.6777,-0.0105,0.0000,26.9715,-0.3063
504.8100,0.6777,-0.0105,0.0000,26.9746,-0.3098
504.8200,0.6777,-0.0105,0.0000,26.9777,-0.3130
504.8300,0.6777,-0.0105,0.0000,26.9809,-0.3155
504.8400,0.6777,-0.0105,0.0000,26.9840,-0.3185
504.8500,0.6777,-0.0105,0.0000,26.9872,-0.3206
504.8600,0.6777,-0.0105,0.0000,26.9905,-0.3223
504.8700,0.6777,-0.0105,0.0000,26.9937,-0.3252
504.8800,0.6777,-0.0105,0.0000,26.9970,-0.3273
504.8900,0.6777,-0.0105,0.0000,27.0003,-0.3292
504.9000,0.6777,-0.0105,0.0000,27.0036,-0.3298
504.9100,0.6777,-0.0105,0.0000,27.0069,-0.3315
504.9200,0.6777,-0.0105,0.0000,27.0102,-0.3328
504.9300,0.6777,-0.0105,0.0000,27.0136,-0.3342
504.9400,0.6777,-0.0105,0.0000,27.0169,-0.3357
504.9500,0.6777,-0.0105,0.0000,27.0203,-0.3374
504.9600,0.6777,-0.0105,0.0000,27.0237,-0.3376
504.9700,0.6777,-0.0105,0.0000,27.0271,-0.3382
504.9800,0.6777,-0.0105,0.0000,27.0304,-0.3391
504.9900,0.6777,-0.0105,0.0000,27.0338,-0.3395
505.0000,0.6777,-0.0105,0.0000,27.0373,-0.3408
505.0100,0.6777,-0.0105,0.0000,27.0407,-0.3418
505.0200,0.6777,-0.0105,0.0000,27.0441,-0.3414
505.0300,0.6777,-0.0105,0.0000,27.0475,-0.3414
505.0400,0.6777,-0.0105,0.0000,27.0509,-0.3424
505.0500,0.6777,-0.0105,0.0000,27.0544,-0.3435
505.0600,0.6777,-0.0105,0.0000,27.0578,-0.3433
505.0700,0.6777,-0.0105,0.0000,27.0612,-0.3437
505.0800,0.6777,-0.0105,0.0000,27.0647,-0.3428
505.0900,0.6777,-0.0105,0.0000,27.0681,-0.3433
505.1000,0.6777,-0.0105,0.0000,27.0715,-0.3443
505.1100,0.6777,-0.0105,0.0000,27.0750,-0.3441
505.1200,0.6777,-0.0105,0.0000,27.0784,-0.3424
505.1300,0.6777,-0.0105,0.0000,27.0818,-0.3418
505.1400,0.6777,-0.0105,0.0000,27.0852,-0.3408
505.1500,0.6777,-0.0105,0.0000,27.0886,-0.3414
505.1600,0.6777,-0.0105,0.0000,27.0921,-0.3414
505.1700,0.6777,-0.0105,0.0000,27.0955,-0.3416
505.1800,0.6777,-0.0105,0.0000,27.0989,-0.3412
505.1900,0.6777,-0.0105,0.0000,27.1023,-0.3408
505.2000,0.6777,-0.0105,0.0000,27.1057,-0.3399
505.2100,0.6777,-0.0105,0.0000,27.1091,-0.3397
505.2200,0.6777,-0.0105,0.0000,27.1125,-0.3403
505.2300,0.6777,-0.0105,0.0000,27.1159,-0.3401
505.2400,0.6777,-0.0105,0.0000,27.1193,-0.3397
505.2500,0.6777,-0.0105,0.0000,27.1227,-0.3389
505.2600,0.6777,-0.0105,0.0000,27.1261,-0.3391
505.2700,0.6777,-0.0105,0.0000,27.1294,-0.3384
505.2800,0.6777,-0.0105,0.0000,27.1328,-0.3389
505.2900,0.6777,-0.0105,0.0000,27.1362,-0.3386
505.3000,0.6777,-0.0105,0.0000,27.1396,-0.3386
505.3100,0.6777,-0.0105,0.0000,27.1430,-0.3370
505.3200,0.6777,-0.0105,0.0000,27.1463,-0.3368
505.3300,0.6777,-0.0105,0.0000,27.1497,-0.3366
505.3400,0.6777,-0.0105,0.0000,27.1531,-0.3361
505.3500,0.6777,-0.0105,0.0000,27.1564,-0.3363
505.3600,0.6777,-0.0105,0.0000,27.1598,-0.3357
505.3700,0.6777,-0.0105,0.0000,27.1631,-0.3345
505.3800,0.6777,-0.0105,0.0000,27.1665,-0.3345
505.3900,0.6777,-0.0105,0.0000,27.1698,-0.3342
505.4000,0.6777,-0.0105,0.0000,27.1732,-0.3342
505.4100,0.6777,-0.0105,0.0000,27.1765,-0.3340
505.4200,0.6777,-0.0105,0.0000,27.1798,-0.3328
505.4300,0.6777,-0.0105,0.0000,27.1832,-0.3321
505.4400,0.6777,-0.0105,0.0000,27.1865,-0.3315
505.4500,0.6777,-0.0105,0.0000,27.1898,-0.3315
505.4600,0.6777,-0.0105,0.0000,27.1931,-0.3313
505.4700,0.6777,-0.0105,0.0000,27.1964,-0.3309
505.4800,0.6777,-0.0105,0.0000,27.1997,-0.3298
505.4900,0.6777,-0.0105,0.0000,27.2030,-0.3290
505.5000,0.6777,-0.0105,0.0000,27.2063,-0.3292
505.5100,0.6777,-0.0105,0.0000,27.2096,-0.3283
505.5200,0.6777,-0.0105,0.0000,27.2129,-0.3283
505.5300,0.6777,-0.0105,0.0000,27.2161,-0.3279
505.5400,0.6777,-0.0105,0.0000,27.2194,-0.3265
505.5500,0.6777,-0.0105,0.0000,27.2227,-0.3267
505.5600,0.6777,-0.0105,0.0000,27.2259,-0.3267
505.5700,0.6777,-0.0105,0.0000,27.2292,-0.3256
505.5800,0.6777,-0.0105,0.0000,27.2324,-0.3252
505.5900,0.6777,-0.0105,0.0000,27.2357,-0.3252
505.6000,0.6777,-0.0105,0.0000,27.2389,-0.3241
505.6100,0.6777,-0.0105,0.0000,27.2422,-0.3235
505.6200,0.6777,-0.0105,0.0000,27.2454,-0.3223
505.6300,0.6777,-0.0105,0.0000,27.2486,-0.3223
505.6400,0.6777,-0.0105,0.0000,27.2518,-0.3225
505.6500,0.6777,-0.0105,0.0000,27.2551,-0.3223
505.6600,0.6777,-0.0105,0.0000,27.2583,-0.3204
505.6700,0.6777,-0.0105,0.0000,27.2615,-0.3199
505.6800,0.6777,-0.0105,0.0000,27.2647,-0.3199
505.6900,0.6777,-0.0105,0.0000,27.2679,-0.3195
505.7000,0.6777,-0.0105,0.0000,27.2711,-0.3197
505.7100,0.6777,-0.0105,0.0000,27.2743,-0.3193
505.7200,0.6777,-0.0105,0.0000,27.2774,-0.3181
505.7300,0.6777,-0.0105,0.0000,27.2806,-0.3174
505.7400,0.6777,-0.0105,0.0000,27.2838,-0.3166
505.7500,0.6777,-0.0105,0.0000,27.2869,-0.3172
505.7600,0.6777,-0.0105,0.0000,27.2901,-0.3160
505.7700,0.6777,-0.0105,0.0000,27.2933,-0.3155
505.7800,0.6777,-0.0105,0.0000,27.2964,-0.3155
505.7900,0.6777,-0.0105,0.0000,27.2996,-0.3145
505.8000,0.6777,-0.0105,0.0000,27.3027,-0.3141
505.8100,0.6777,-0.0105,0.0000,27.3058,-0.3132
505.8200,0.6777,-0.0105,0.0000,27.3090,-0.3128
505.8300,0.6777,-0.0105,0.0000,27.3121,-0.3124
505.8400,0.6777,-0.0105,0.0000,27.3152,-0.3126
505.8500,0.6777,-0.0105,0.0000,27.3183,-0.3113
505.8600,0.6777,-0.0105,0.0000,27.3214,-0.3105
505.8700,0.6777,-0.0105,0.0000,27.3245,-0.3105
505.8800,0.6777,-0.0105,0.0000,27.3276,-0.3101
505.8900,0.6777,-0.0105,0.0000,27.3307,-0.3098
505.9000,0.6777,-0.0105,0.0000,27.3338,-0.3096
505.9100,0.6777,-0.0105,0.0000,27.3369,-0.3080
505.9200,0.6777,-0.0105,0.0000,27.3400,-0.3077
505.9300,0.6777,-0.0105,0.0000,27.3431,-0.3075
505.9400,0.6777,-0.0105,0.0000,27.3461,-0.3073
505.9500,0.6777,-0.0105,0.0000,27.3492,-0.3069
505.9600,0.6777,-0.0105,0.0000,27.3523,-0.3061
505.9700,0.6777,-0.0105,0.0000,27.3553,-0.3057
505.9800,0.6777,-0.0105,0.0000,27.3584,-0.3048
505.9900,0.6777,-0.0105,0.0000,27.3614,-0.3042
506.0000,0.6777,-0.0105,0.0000,27.3645,-0.3040
506.0100,0.6777,-0.0105,0.0000,27.3675,-0.3036
506.0200,0.6777,-0.0105,0.0000,27.3705,-0.3031
506.0300,0.6777,-0.0105,0.0000,27.3736,-0.3027
506.0400,0.6777,-0.0105,0.0000,27.3766,-0.3017
506.0500,0.6777,-0.0105,0.0000,27.3796,-0.3017
506.0600,0.6777,-0.0105,0.0000,27.3826,-0.3006
506.0700,0.6777,-0.0105,0.0000,27.3856,-0.3004
506.0800,0.6777,-0.0105,0.0000,27.3886,-0.3004
506.0900,0.6777,-0.0105,0.0000,27.3916,-0.3002
506.1000,0.6777,-0.0105,0.0000,27.3946,-0.2996
506.1100,0.6777,-0.0105,0.0000,27.3976,-0.2977
506.1200,0.6777,-0.0105,0.0000,27.4006,-0.2979
506.1300,0.6777,-0.0105,0.0000,27.4035,-0.2979
506.1400,0.6777,-0.0105,0.0000,27.4065,-0.2975
506.1500,0.6777,-0.0105,0.0000,27.4095,-0.2974
506.1600,0.6777,-0.0105,0.0000,27.4124,-0.2966
506.1700,0.6777,-0.0105,0.0000,27.4154,-0.2956
506.1800,0.6777,-0.0105,0.0000,27.4184,-0.3035
506.1900,0.6777,-0.0105,0.0000,27.4215,-0.3025
506.2000,0.6777,-0.0105,0.0000,27.4245,-0.2993
506.2100,0.6777,-0.0105,0.0000,27.4274,-0.2937
506.2200,0.6777,-0.0105,0.0000,27.4303,-0.2907
506.2300,0.6777,-0.0105,0.0000,27.4332,-0.2872
506.2400,0.6777,-0.0105,0.0000,27.4360,-0.2851
506.2500,0.6777,-0.0105,0.0000,27.4389,-0.2832
506.2600,0.6777,-0.0105,0.0000,27.4417,-0.2825
506.2700,0.6777,-0.0105,0.0000,27.4445,-0.2811
506.2800,0.6777,-0.0105,0.0000,27.4473,-0.2798
506.2900,0.6777,-0.0105,0.0000,27.4502,-0.2869
506.3000,0.6777,-0.0105,0.0000,27.4531,-0.2890
506.3100,0.6777,-0.0105,0.0000,27.4559,-0.2863
506.3200,0.6777,-0.0105,0.0000,27.4588,-0.2857
506.3300,0.6777,-0.0105,0.0000,27.4616,-0.2838
506.3400,0.6777,-0.0105,0.0000,27.4644,-0.2827
506.3500,0.6777,-0.0105,0.0000,27.4673,-0.2813
506.3600,0.6777,-0.0105,0.0000,27.4701,-0.2800
506.3700,0.6777,-0.0105,0.0000,27.4728,-0.2790
506.3800,0.6777,-0.0105,0.0000,27.4756,-0.2773
506.3900,0.6777,-0.0105,0.0000,27.4784,-0.2760
506.4000,0.6777,-0.0105,0.0000,27.4811,-0.2750
506.4100,0.6777,-0.0105,0.0000,27.4839,-0.2750
506.4200,0.6777,-0.0105,0.0000,27.4866,-0.2731
506.4300,0.6777,-0.0105,0.0000,27.4893,-0.2729
506.4400,0.6777,-0.0105,0.0000,27.4921,-0.2718
506.4500,0.6777,-0.0105,0.0000,27.4948,-0.2707
506.4600,0.6777,-0.0105,0.0000,27.4975,-0.2708
506.4700,0.6777,-0.0105,0.0000,27.5003,-0.2787
506.4800,0.6777,-0.0105,0.0000,27.5031,-0.2859
506.4900,0.6777,-0.0105,0.0000,27.5059,-0.2777
506.5000,0.6777,-0.0105,0.0000,27.5086,-0.2707
506.5100,0.6777,-0.0105,0.0000,27.5113,-0.2651
506.5200,0.6777,-0.0105,0.0000,27.5139,-0.2600
506.5300,0.6777,-0.0105,0.0000,27.5164,-0.2567
506.5400,0.6777,-0.0105,0.0000,27.5190,-0.2537
506.5500,0.6777,-0.0105,0.0000,27.5215,-0.2512
506.5600,0.6777,-0.0105,0.0000,27.5240,-0.2493
506.5700,0.6777,-0.0105,0.0000,27.5264,-0.2468
506.5800,0.6777,-0.0105,0.0000,27.5290,-0.2554
506.5900,0.6777,-0.0105,0.0000,27.5316,-0.2634
506.6000,0.6777,-0.0105,0.0000,27.5342,-0.2615
506.6100,0.6777,-0.0105,0.0000,27.5368,-0.2592
506.6200,0.6777,-0.0105,0.0000,27.5394,-0.2575
506.6300,0.6777,-0.0105,0.0000,27.5419,-0.2552
506.6400,0.6777,-0.0105,0.0000,27.5445,-0.2531
506.6500,0.6777,-0.0105,0.0000,27.5470,-0.2512
506.6600,0.6777,-0.0105,0.0000,27.5495,-0.2493
506.6700,0.6777,-0.0105,0.0000,27.5520,-0.2472
506.6800,0.6777,-0.0105,0.0000,27.5544,-0.2455
506.6900,0.6777,-0.0105,0.0000,27.5569,-0.2445
506.7000,0.6777,-0.0105,0.0000,27.5593,-0.2428
506.7100,0.6777,-0.0105,0.0000,27.5617,-0.2420
506.7200,0.6777,-0.0105,0.0000,27.5641,-0.2407
506.7300,0.6777,-0.0105,0.0000,27.5665,-0.2394
506.7400,0.6777,-0.0105,0.0000,27.5689,-0.2384
506.7500,0.6777,-0.0105,0.0000,27.5713,-0.2371
506.7600,0.6777,-0.0105,0.0000,27.5737,-0.2409
506.7700,0.6777,-0.0105,0.0000,27.5762,-0.2512
506.7800,0.6777,-0.0105,0.0000,27.5786,-0.2432
506.7900,0.6777,-0.0105,0.0000,27.5810,-0.2371
506.8000,0.6777,-0.0105,0.0000,27.5833,-0.2310
506.8100,0.6777,-0.0105,0.0000,27.5856,-0.2266
506.8200,0.6777,-0.0105,0.0000,27.5878,-0.2224
506.8300,0.6777,-0.0105,0.0000,27.5900,-0.2190
506.8400,0.6777,-0.0105,0.0000,27.5921,-0.2165
506.8500,0.6777,-0.0105,0.0000,27.5943,-0.2146
506.8600,0.6777,-0.0105,0.0000,27.5964,-0.2129
506.8700,0.6777,-0.0105,0.0000,27.5986,-0.2178
506.8800,0.6777,-0.0105,0.0000,27.6009,-0.2285
506.8900,0.6777,-0.0105,0.0000,27.6031,-0.2268
506.9000,0.6777,-0.0105,0.0000,27.6054,-0.2247
506.9100,0.6777,-0.0105,0.0000,27.6076,-0.2230
506.9200,0.6777,-0.0105,0.0000,27.6098,-0.2209
506.9300,0.6777,-0.0105,0.0000,27.6120,-0.2186
506.9400,0.6777,-0.0105,0.0000,27.6142,-0.2172
506.9500,0.6777,-0.0105,0.0000,27.6163,-0.2151
506.9600,0.6777,-0.0105,0.0000,27.6185,-0.2140
506.9700,0.6777,-0.0105,0.0000,27.6206,-0.2125
506.9800,0.6777,-0.0105,0.0000,27.6227,-0.2110
506.9900,0.6777,-0.0105,0.0000,27.6248,-0.2094
507.0000,0.6777,-0.0105,0.0000,27.6269,-0.2087
507.0100,0.6777,-0.0105,0.0000,27.6290,-0.2068
507.0200,0.6777,-0.0105,0.0000,27.6310,-0.2058
507.0300,0.6777,-0.0105,0.0000,27.6331,-0.2052
507.0400,0.6777,-0.0105,0.0000,27.6351,-0.2041
507.0500,0.6777,-0.0105,0.0000,27.6372,-0.2054
507.0600,0.6777,-0.0105,0.0000,27.6393,-0.2176
507.0700,0.6777,-0.0105,0.0000,27.6414,-0.2096
507.0800,0.6777,-0.0105,0.0000,27.6435,-0.2029
507.0900,0.6777,-0.0105,0.0000,27.6455,-0.1978
507.1000,0.6777,-0.0105,0.0000,27.6474,-0.1930
507.1100,0.6777,-0.0105,0.0000,27.6493,-0.1896
507.1200,0.6777,-0.0105,0.0000,27.6511,-0.1860
507.1300,0.6777,-0.0105,0.0000,27.6530,-0.1837
507.1400,0.6777,-0.0105,0.0000,27.6548,-0.1818
507.1500,0.6777,-0.0105,0.0000,27.6566,-0.1804
507.1600,0.6777,-0.0105,0.0000,27.6584,-0.1827
507.1700,0.6777,-0.0105,0.0000,27.6604,-0.1942
507.1800,0.6777,-0.0105,0.0000,27.6623,-0.1934
507.1900,0.6777,-0.0105,0.0000,27.6642,-0.1915
507.2000,0.6777,-0.0105,0.0000,27.6661,-0.1902
507.2100,0.6777,-0.0105,0.0000,27.6680,-0.1879
507.2200,0.6777,-0.0105,0.0000,27.6699,-0.1860
507.2300,0.6777,-0.0105,0.0000,27.6717,-0.1842
507.2400,0.6777,-0.0105,0.0000,27.6735,-0.1831
